"","subid","trial.num","item","item1","item2","word.type","image.type","choice.side","response","rt","date","time","gender","age","language"
"1","1",1,"ears.glasses","ears","glasses","and","and/noun","left","and",3520,"1/19/2016","12:04","M","35","English"
"2","1",2,"hands.lips","hands","lips","noun","or/noun","right","noun",3215,"1/19/2016","12:05","M","35","English"
"3","1",3,"hands.lips","hands","lips","noun","and/noun","left","noun",2446,"1/19/2016","12:05","M","35","English"
"4","1",4,"hair.lips","hair","lips","or","or/noun","right","or",5292,"1/19/2016","12:05","M","35","English"
"5","1",5,"ears.pants","ears","pants","or","and/or","right","or",9660,"1/19/2016","12:05","M","35","English"
"6","1",6,"hair.pants","hair","pants","noun","and/or","right","and",3106,"1/19/2016","12:05","M","35","English"
"7","1",7,"ears.hair","ears","hair","noun","or/noun","right","noun",1683,"1/19/2016","12:05","M","35","English"
"8","1",8,"glasses.hair","glasses","hair","and","or/noun","right","or",13527,"1/19/2016","12:05","M","35","English"
"9","1",9,"ears.pants","ears","pants","or","and/or","left","or",6143,"1/19/2016","12:05","M","35","English"
"10","1",10,"lips.pants","lips","pants","or","and/or","right","or",3893,"1/19/2016","12:05","M","35","English"
"11","1",11,"glasses.lips","glasses","lips","noun","and/noun","left","noun",3219,"1/19/2016","12:05","M","35","English"
"12","1",12,"hair.pants","hair","pants","or","and/noun","left","and",2907,"1/19/2016","12:06","M","35","English"
"13","1",13,"glasses.lips","glasses","lips","or","and/noun","right","and",2967,"1/19/2016","12:06","M","35","English"
"14","1",14,"hands.lips","hands","lips","and","and/noun","right","and",2181,"1/19/2016","12:06","M","35","English"
"15","1",15,"ears.glasses","ears","glasses","and","and/or","left","and",3038,"1/19/2016","12:06","M","35","English"
"16","1",16,"glasses.pants","glasses","pants","noun","and/or","right","and",2108,"1/19/2016","12:06","M","35","English"
"17","1",17,"hands.pants","hands","pants","or","and/noun","left","and",4010,"1/19/2016","12:06","M","35","English"
"18","1",18,"ears.lips","ears","lips","noun","and/or","right","and",5660,"1/19/2016","12:06","M","35","English"
"19","1",19,"ears.lips","ears","lips","noun","or/noun","right","noun",2115,"1/19/2016","12:06","M","35","English"
"20","1",20,"hair.hands","hair","hands","noun","or/noun","right","noun",2142,"1/19/2016","12:06","M","35","English"
"21","1",21,"lips.pants","lips","pants","and","and/or","right","and",3509,"1/19/2016","12:06","M","35","English"
"22","1",22,"lips.pants","lips","pants","or","or/noun","left","or",3321,"1/19/2016","12:06","M","35","English"
"23","1",23,"hair.pants","hair","pants","and","and/or","right","or",2314,"1/19/2016","12:06","M","35","English"
"24","1",24,"glasses.hair","glasses","hair","noun","and/or","left","and",4129,"1/19/2016","12:06","M","35","English"
"25","1",25,"hair.hands","hair","hands","and","and/noun","left","and",2849,"1/19/2016","12:06","M","35","English"
"26","1",26,"ears.glasses","ears","glasses","and","or/noun","left","or",2939,"1/19/2016","12:07","M","35","English"
"27","1",27,"glasses.pants","glasses","pants","and","or/noun","left","or",3353,"1/19/2016","12:07","M","35","English"
"28","1",28,"hair.lips","hair","lips","noun","and/noun","left","noun",9912,"1/19/2016","12:07","M","35","English"
"29","1",29,"ears.glasses","ears","glasses","and","and/noun","left","and",2808,"1/19/2016","12:07","M","35","English"
"30","1",30,"ears.hands","ears","hands","or","and/noun","left","and",2330,"1/19/2016","12:07","M","35","English"
"31","1",31,"glasses.pants","glasses","pants","or","or/noun","right","or",6529,"1/19/2016","12:07","M","35","English"
"32","1",32,"ears.hair","ears","hair","noun","and/noun","right","noun",2710,"1/19/2016","12:07","M","35","English"
"33","1",33,"hands.lips","hands","lips","and","or/noun","left","or",2940,"1/19/2016","12:07","M","35","English"
"34","1",34,"hair.pants","hair","pants","and","and/or","right","and",5955,"1/19/2016","12:07","M","35","English"
"35","1",35,"glasses.lips","glasses","lips","or","and/or","right","or",3274,"1/19/2016","12:07","M","35","English"
"36","1",36,"ears.hands","ears","hands","or","or/noun","left","or",2280,"1/19/2016","12:07","M","35","English"
"37","2",1,"glasses.lips","glasses","lips","noun","and/or","left","and",3519,"1/19/2016","12:49","M","35","English"
"38","2",2,"ears.lips","ears","lips","noun","and/or","left","and",1921,"1/19/2016","12:49","M","35","English"
"39","2",3,"glasses.pants","glasses","pants","or","or/noun","right","or",3231,"1/19/2016","12:49","M","35","English"
"40","2",4,"glasses.hair","glasses","hair","and","or/noun","left","or",5635,"1/19/2016","12:49","M","35","English"
"41","2",5,"ears.glasses","ears","glasses","and","and/noun","left","and",3257,"1/19/2016","12:49","M","35","English"
"42","2",6,"ears.lips","ears","lips","and","and/noun","right","and",2828,"1/19/2016","12:49","M","35","English"
"43","2",7,"hair.lips","hair","lips","noun","and/or","right","and",2405,"1/19/2016","12:49","M","35","English"
"44","2",8,"hair.pants","hair","pants","noun","and/noun","right","noun",1946,"1/19/2016","12:49","M","35","English"
"45","2",9,"ears.hands","ears","hands","or","and/noun","right","and",7185,"1/19/2016","12:49","M","35","English"
"46","2",10,"lips.pants","lips","pants","noun","or/noun","right","noun",2133,"1/19/2016","12:49","M","35","English"
"47","2",11,"glasses.pants","glasses","pants","and","and/or","right","and",3232,"1/19/2016","12:49","M","35","English"
"48","2",12,"glasses.hands","glasses","hands","noun","or/noun","right","noun",2926,"1/19/2016","12:49","M","35","English"
"49","2",13,"glasses.hands","glasses","hands","or","and/or","right","or",4828,"1/19/2016","12:50","M","35","English"
"50","2",14,"hands.pants","hands","pants","and","or/noun","right","or",4908,"1/19/2016","12:50","M","35","English"
"51","2",15,"hair.lips","hair","lips","and","and/or","right","and",3668,"1/19/2016","12:50","M","35","English"
"52","2",16,"glasses.hands","glasses","hands","and","or/noun","left","or",4184,"1/19/2016","12:50","M","35","English"
"53","2",17,"hands.pants","hands","pants","noun","and/noun","right","noun",2123,"1/19/2016","12:50","M","35","English"
"54","2",18,"ears.pants","ears","pants","or","and/noun","right","and",8125,"1/19/2016","12:50","M","35","English"
"55","2",19,"hands.pants","hands","pants","or","and/noun","right","and",3383,"1/19/2016","12:50","M","35","English"
"56","2",20,"hair.pants","hair","pants","and","or/noun","right","or",4642,"1/19/2016","12:50","M","35","English"
"57","2",21,"ears.lips","ears","lips","and","and/or","right","and",3962,"1/19/2016","12:50","M","35","English"
"58","2",22,"hands.lips","hands","lips","noun","or/noun","right","noun",3071,"1/19/2016","12:50","M","35","English"
"59","2",23,"ears.hair","ears","hair","or","and/or","right","or",4035,"1/19/2016","12:50","M","35","English"
"60","2",24,"hair.hands","hair","hands","or","and/or","left","or",3517,"1/19/2016","12:50","M","35","English"
"61","2",25,"hair.lips","hair","lips","or","and/noun","left","and",2259,"1/19/2016","12:51","M","35","English"
"62","2",26,"hair.lips","hair","lips","and","and/noun","left","and",3014,"1/19/2016","12:51","M","35","English"
"63","2",27,"ears.hair","ears","hair","and","and/or","right","and",3372,"1/19/2016","12:51","M","35","English"
"64","2",28,"ears.hands","ears","hands","or","or/noun","left","or",2702,"1/19/2016","12:51","M","35","English"
"65","2",29,"glasses.hair","glasses","hair","noun","and/noun","left","noun",2138,"1/19/2016","12:51","M","35","English"
"66","2",30,"ears.hair","ears","hair","or","and/or","right","or",3741,"1/19/2016","12:51","M","35","English"
"67","2",31,"hands.lips","hands","lips","or","or/noun","left","or",4119,"1/19/2016","12:51","M","35","English"
"68","2",32,"ears.pants","ears","pants","and","and/noun","left","and",3847,"1/19/2016","12:51","M","35","English"
"69","2",33,"ears.hair","ears","hair","noun","or/noun","left","noun",4957,"1/19/2016","12:51","M","35","English"
"70","2",34,"glasses.lips","glasses","lips","or","or/noun","right","or",3001,"1/19/2016","12:51","M","35","English"
"71","2",35,"hair.hands","hair","hands","noun","and/noun","left","noun",4575,"1/19/2016","12:51","M","35","English"
"72","2",36,"lips.pants","lips","pants","noun","and/or","left","and",3105,"1/19/2016","12:51","M","35","English"
"73","3",1,"hands.pants","hands","pants","and","and/or","right","and",3469,"1/19/2016","12:15","F","35","English"
"74","3",2,"hair.lips","hair","lips","or","and/noun","right","and",7509,"1/19/2016","12:15","F","35","English"
"75","3",3,"glasses.pants","glasses","pants","noun","or/noun","right","noun",2058,"1/19/2016","12:15","F","35","English"
"76","3",4,"glasses.lips","glasses","lips","or","or/noun","left","or",8211,"1/19/2016","12:15","F","35","English"
"77","3",5,"hands.pants","hands","pants","or","or/noun","right","or",2859,"1/19/2016","12:16","F","35","English"
"78","3",6,"glasses.lips","glasses","lips","noun","or/noun","right","noun",1803,"1/19/2016","12:16","F","35","English"
"79","3",7,"ears.pants","ears","pants","noun","and/noun","right","noun",2390,"1/19/2016","12:16","F","35","English"
"80","3",8,"glasses.hair","glasses","hair","and","or/noun","left","or",2758,"1/19/2016","12:16","F","35","English"
"81","3",9,"glasses.hands","glasses","hands","noun","and/noun","right","noun",3034,"1/19/2016","12:16","F","35","English"
"82","3",10,"glasses.pants","glasses","pants","and","and/noun","right","and",1779,"1/19/2016","12:16","F","35","English"
"83","3",11,"ears.hands","ears","hands","or","and/or","left","or",2604,"1/19/2016","12:16","F","35","English"
"84","3",12,"ears.hair","ears","hair","and","and/noun","left","and",1918,"1/19/2016","12:16","F","35","English"
"85","3",13,"ears.lips","ears","lips","or","or/noun","right","or",2253,"1/19/2016","12:16","F","35","English"
"86","3",14,"glasses.hands","glasses","hands","and","and/noun","right","and",2096,"1/19/2016","12:16","F","35","English"
"87","3",15,"hands.lips","hands","lips","noun","or/noun","left","noun",2252,"1/19/2016","12:16","F","35","English"
"88","3",16,"ears.glasses","ears","glasses","or","and/noun","left","noun",5765,"1/19/2016","12:16","F","35","English"
"89","3",17,"lips.pants","lips","pants","or","and/or","right","or",2079,"1/19/2016","12:16","F","35","English"
"90","3",18,"hair.hands","hair","hands","or","and/or","right","or",2112,"1/19/2016","12:16","F","35","English"
"91","3",19,"glasses.hands","glasses","hands","and","or/noun","left","or",6397,"1/19/2016","12:16","F","35","English"
"92","3",20,"glasses.pants","glasses","pants","and","and/or","left","and",2419,"1/19/2016","12:17","F","35","English"
"93","3",21,"hair.lips","hair","lips","noun","and/or","left","and",2108,"1/19/2016","12:17","F","35","English"
"94","3",22,"glasses.lips","glasses","lips","noun","and/noun","right","noun",2727,"1/19/2016","12:17","F","35","English"
"95","3",23,"glasses.hands","glasses","hands","and","or/noun","right","or",2044,"1/19/2016","12:17","F","35","English"
"96","3",24,"lips.pants","lips","pants","or","and/or","left","or",2909,"1/19/2016","12:17","F","35","English"
"97","3",25,"ears.hands","ears","hands","noun","or/noun","right","noun",1865,"1/19/2016","12:17","F","35","English"
"98","3",26,"ears.glasses","ears","glasses","noun","and/or","right","and",2667,"1/19/2016","12:17","F","35","English"
"99","3",27,"ears.pants","ears","pants","and","or/noun","left","or",2153,"1/19/2016","12:17","F","35","English"
"100","3",28,"glasses.hair","glasses","hair","and","and/noun","left","and",3126,"1/19/2016","12:17","F","35","English"
"101","3",29,"hair.hands","hair","hands","or","and/noun","left","noun",3401,"1/19/2016","12:17","F","35","English"
"102","3",30,"hair.lips","hair","lips","or","or/noun","right","or",1849,"1/19/2016","12:17","F","35","English"
"103","3",31,"glasses.lips","glasses","lips","noun","and/noun","right","noun",2117,"1/19/2016","12:17","F","35","English"
"104","3",32,"ears.hands","ears","hands","noun","and/or","right","and",1925,"1/19/2016","12:17","F","35","English"
"105","3",33,"lips.pants","lips","pants","noun","and/or","right","or",1653,"1/19/2016","12:17","F","35","English"
"106","3",34,"ears.hands","ears","hands","and","and/or","left","and",3731,"1/19/2016","12:17","F","35","English"
"107","3",35,"ears.glasses","ears","glasses","or","and/noun","left","noun",2973,"1/19/2016","12:17","F","35","English"
"108","3",36,"hands.pants","hands","pants","and","and/or","right","and",2572,"1/19/2016","12:17","F","35","English"
"109","4",1,"ears.hair","ears","hair","noun","and/or","right","and",5270,"1/19/2016","12:51","M","25","English"
"110","4",2,"lips.pants","lips","pants","and","or/noun","left","noun",7417,"1/19/2016","12:51","M","25","English"
"111","4",3,"ears.hair","ears","hair","or","and/or","right","and",2651,"1/19/2016","12:51","M","25","English"
"112","4",4,"ears.hands","ears","hands","or","and/noun","right","and",1570,"1/19/2016","12:51","M","25","English"
"113","4",5,"hair.pants","hair","pants","noun","or/noun","left","noun",1446,"1/19/2016","12:51","M","25","English"
"114","4",6,"glasses.lips","glasses","lips","or","or/noun","right","noun",4386,"1/19/2016","12:51","M","25","English"
"115","4",7,"ears.pants","ears","pants","noun","and/noun","right","and",1591,"1/19/2016","12:51","M","25","English"
"116","4",8,"glasses.hair","glasses","hair","noun","or/noun","right","noun",1061,"1/19/2016","12:51","M","25","English"
"117","4",9,"hands.lips","hands","lips","noun","and/or","left","and",2152,"1/19/2016","12:51","M","25","English"
"118","4",10,"glasses.hair","glasses","hair","or","and/or","left","and",1617,"1/19/2016","12:51","M","25","English"
"119","4",11,"ears.glasses","ears","glasses","or","and/noun","left","noun",6544,"1/19/2016","12:51","M","25","English"
"120","4",12,"hair.pants","hair","pants","and","or/noun","left","or",6339,"1/19/2016","12:51","M","25","English"
"121","4",13,"ears.glasses","ears","glasses","noun","or/noun","left","noun",2150,"1/19/2016","12:51","M","25","English"
"122","4",14,"hands.lips","hands","lips","noun","and/noun","left","noun",1887,"1/19/2016","12:51","M","25","English"
"123","4",15,"ears.pants","ears","pants","and","or/noun","left","or",1897,"1/19/2016","12:52","M","25","English"
"124","4",16,"hands.pants","hands","pants","noun","and/noun","right","noun",1507,"1/19/2016","12:52","M","25","English"
"125","4",17,"glasses.lips","glasses","lips","noun","and/noun","left","noun",1123,"1/19/2016","12:52","M","25","English"
"126","4",18,"hands.pants","hands","pants","or","or/noun","left","noun",2503,"1/19/2016","12:52","M","25","English"
"127","4",19,"ears.hands","ears","hands","and","and/or","left","and",2527,"1/19/2016","12:52","M","25","English"
"128","4",20,"hair.pants","hair","pants","and","and/noun","left","and",1497,"1/19/2016","12:52","M","25","English"
"129","4",21,"hair.hands","hair","hands","or","and/or","left","and",2400,"1/19/2016","12:52","M","25","English"
"130","4",22,"ears.glasses","ears","glasses","noun","or/noun","right","noun",3403,"1/19/2016","12:52","M","25","English"
"131","4",23,"hands.pants","hands","pants","or","and/noun","right","and",1031,"1/19/2016","12:52","M","25","English"
"132","4",24,"ears.lips","ears","lips","and","and/or","right","or",1401,"1/19/2016","12:52","M","25","English"
"133","4",25,"glasses.hair","glasses","hair","noun","and/or","right","and",1228,"1/19/2016","12:52","M","25","English"
"134","4",26,"hands.lips","hands","lips","and","and/noun","left","and",15714,"1/19/2016","12:52","M","25","English"
"135","4",27,"glasses.lips","glasses","lips","or","and/noun","left","and",1487,"1/19/2016","12:52","M","25","English"
"136","4",28,"glasses.pants","glasses","pants","and","and/noun","left","and",1791,"1/19/2016","12:52","M","25","English"
"137","4",29,"hair.pants","hair","pants","and","and/or","right","and",1143,"1/19/2016","12:52","M","25","English"
"138","4",30,"lips.pants","lips","pants","and","or/noun","right","or",7107,"1/19/2016","12:53","M","25","English"
"139","4",31,"ears.pants","ears","pants","or","or/noun","right","or",8912,"1/19/2016","12:53","M","25","English"
"140","4",32,"ears.glasses","ears","glasses","or","and/or","right","or",5302,"1/19/2016","12:53","M","25","English"
"141","4",33,"ears.lips","ears","lips","noun","and/or","left","and",2488,"1/19/2016","12:53","M","25","English"
"142","4",34,"glasses.hands","glasses","hands","or","or/noun","left","or",1767,"1/19/2016","12:53","M","25","English"
"143","4",35,"glasses.pants","glasses","pants","and","and/or","left","and",1654,"1/19/2016","12:53","M","25","English"
"144","4",36,"hair.lips","hair","lips","and","and/noun","right","and",1455,"1/19/2016","12:53","M","25","English"
"145","5",1,"glasses.hands","glasses","hands","or","and/noun","left","noun",8718,"1/19/2016","12:08","F","45","English"
"146","5",2,"hair.lips","hair","lips","noun","or/noun","right","noun",3156,"1/19/2016","12:08","F","45","English"
"147","5",3,"ears.glasses","ears","glasses","and","and/or","left","and",15440,"1/19/2016","12:08","F","45","English"
"148","5",4,"ears.hair","ears","hair","and","and/noun","right","and",4441,"1/19/2016","12:08","F","45","English"
"149","5",5,"hands.pants","hands","pants","noun","or/noun","right","noun",2139,"1/19/2016","12:08","F","45","English"
"150","5",6,"glasses.hair","glasses","hair","noun","or/noun","right","noun",2958,"1/19/2016","12:08","F","45","English"
"151","5",7,"ears.pants","ears","pants","noun","and/or","right","and",1880,"1/19/2016","12:08","F","45","English"
"152","5",8,"ears.hair","ears","hair","and","or/noun","left","or",7120,"1/19/2016","12:08","F","45","English"
"153","5",9,"hands.lips","hands","lips","noun","and/or","right","and",2921,"1/19/2016","12:08","F","45","English"
"154","5",10,"ears.glasses","ears","glasses","and","or/noun","left","or",4540,"1/19/2016","12:09","F","45","English"
"155","5",11,"hands.pants","hands","pants","or","or/noun","right","or",6328,"1/19/2016","12:09","F","45","English"
"156","5",12,"glasses.lips","glasses","lips","or","and/noun","right","noun",3783,"1/19/2016","12:09","F","45","English"
"157","5",13,"glasses.hands","glasses","hands","and","or/noun","right","or",8492,"1/19/2016","12:09","F","45","English"
"158","5",14,"ears.glasses","ears","glasses","or","and/or","left","or",5467,"1/19/2016","12:09","F","45","English"
"159","5",15,"hair.pants","hair","pants","noun","and/noun","right","noun",2486,"1/19/2016","12:09","F","45","English"
"160","5",16,"glasses.lips","glasses","lips","noun","and/or","left","and",5444,"1/19/2016","12:09","F","45","English"
"161","5",17,"hair.lips","hair","lips","and","and/or","left","and",6012,"1/19/2016","12:09","F","45","English"
"162","5",18,"ears.lips","ears","lips","noun","and/noun","left","noun",7243,"1/19/2016","12:09","F","45","English"
"163","5",19,"glasses.hands","glasses","hands","noun","and/noun","right","noun",3417,"1/19/2016","12:10","F","45","English"
"164","5",20,"hair.lips","hair","lips","noun","or/noun","left","noun",5756,"1/19/2016","12:10","F","45","English"
"165","5",21,"ears.pants","ears","pants","or","or/noun","left","or",3788,"1/19/2016","12:10","F","45","English"
"166","5",22,"glasses.lips","glasses","lips","and","and/noun","right","and",4765,"1/19/2016","12:10","F","45","English"
"167","5",23,"hands.lips","hands","lips","or","and/noun","right","noun",4845,"1/19/2016","12:10","F","45","English"
"168","5",24,"glasses.pants","glasses","pants","noun","and/or","right","and",3622,"1/19/2016","12:10","F","45","English"
"169","5",26,"glasses.hair","glasses","hair","or","and/or","left","or",2269,"1/19/2016","12:10","F","45","English"
"170","5",25,"ears.pants","ears","pants","or","and/or","left","or",5142,"1/19/2016","12:10","F","45","English"
"171","5",27,"glasses.hands","glasses","hands","or","and/or","left","or",2205,"1/19/2016","12:10","F","45","English"
"172","5",28,"ears.hair","ears","hair","and","and/or","left","and",7163,"1/19/2016","12:10","F","45","English"
"173","5",29,"hair.hands","hair","hands","noun","and/noun","left","noun",1764,"1/19/2016","12:10","F","45","English"
"174","5",30,"hands.lips","hands","lips","and","and/noun","left","and",3107,"1/19/2016","12:10","F","45","English"
"175","5",31,"ears.hands","ears","hands","or","or/noun","right","or",2785,"1/19/2016","12:11","F","45","English"
"176","5",32,"ears.lips","ears","lips","and","or/noun","right","or",3305,"1/19/2016","12:11","F","45","English"
"177","5",33,"hair.lips","hair","lips","or","and/noun","right","noun",6779,"1/19/2016","12:11","F","45","English"
"178","5",34,"ears.hands","ears","hands","and","and/noun","left","and",5104,"1/19/2016","12:11","F","45","English"
"179","5",35,"ears.glasses","ears","glasses","and","and/or","left","and",2636,"1/19/2016","12:11","F","45","English"
"180","5",36,"ears.pants","ears","pants","or","or/noun","left","or",8116,"1/19/2016","12:11","F","45","English"
"181","6",1,"glasses.hands","glasses","hands","and","and/noun","right","and",2016,"1/19/2016","9:54","M","35","English"
"182","6",2,"ears.hair","ears","hair","and","and/noun","right","and",1870,"1/19/2016","9:55","M","35","English"
"183","6",3,"ears.lips","ears","lips","noun","or/noun","right","noun",1782,"1/19/2016","9:55","M","35","English"
"184","6",4,"ears.hair","ears","hair","and","or/noun","right","or",2421,"1/19/2016","9:55","M","35","English"
"185","6",5,"glasses.lips","glasses","lips","and","and/or","right","or",2182,"1/19/2016","9:55","M","35","English"
"186","6",6,"lips.pants","lips","pants","and","or/noun","left","or",2728,"1/19/2016","9:55","M","35","English"
"187","6",7,"hands.pants","hands","pants","and","and/or","right","and",1850,"1/19/2016","9:55","M","35","English"
"188","6",8,"hair.pants","hair","pants","noun","or/noun","left","noun",1969,"1/19/2016","9:55","M","35","English"
"189","6",9,"ears.glasses","ears","glasses","or","and/or","left","or",5537,"1/19/2016","9:55","M","35","English"
"190","6",10,"glasses.pants","glasses","pants","or","or/noun","right","or",1675,"1/19/2016","9:55","M","35","English"
"191","6",11,"ears.pants","ears","pants","or","and/or","right","or",3332,"1/19/2016","9:55","M","35","English"
"192","6",12,"glasses.lips","glasses","lips","or","or/noun","right","or",1776,"1/19/2016","9:55","M","35","English"
"193","6",13,"glasses.hair","glasses","hair","and","and/noun","left","and",1670,"1/19/2016","9:55","M","35","English"
"194","6",14,"hands.pants","hands","pants","noun","and/noun","right","noun",2306,"1/19/2016","9:55","M","35","English"
"195","6",15,"glasses.lips","glasses","lips","noun","and/or","left","and",3011,"1/19/2016","9:55","M","35","English"
"196","6",16,"hands.lips","hands","lips","noun","and/noun","left","noun",2393,"1/19/2016","9:55","M","35","English"
"197","6",17,"hair.pants","hair","pants","or","or/noun","left","or",2018,"1/19/2016","9:55","M","35","English"
"198","6",18,"glasses.hair","glasses","hair","noun","and/or","right","and",4665,"1/19/2016","9:55","M","35","English"
"199","6",19,"glasses.hair","glasses","hair","and","and/noun","left","and",20034,"1/19/2016","9:56","M","35","English"
"200","6",20,"ears.hair","ears","hair","and","or/noun","right","or",3870,"1/19/2016","9:56","M","35","English"
"201","6",21,"hair.lips","hair","lips","noun","and/or","right","and",1370,"1/19/2016","9:56","M","35","English"
"202","6",22,"glasses.hands","glasses","hands","or","or/noun","right","or",1631,"1/19/2016","9:56","M","35","English"
"203","6",23,"hands.lips","hands","lips","and","or/noun","left","or",7924,"1/19/2016","9:56","M","35","English"
"204","6",24,"hair.lips","hair","lips","or","and/noun","right","and",1946,"1/19/2016","9:56","M","35","English"
"205","6",25,"hair.hands","hair","hands","or","and/or","left","or",12614,"1/19/2016","9:56","M","35","English"
"206","6",26,"ears.glasses","ears","glasses","noun","and/or","right","and",1990,"1/19/2016","9:56","M","35","English"
"207","6",27,"glasses.pants","glasses","pants","and","and/or","right","and",2726,"1/19/2016","9:57","M","35","English"
"208","6",28,"ears.hair","ears","hair","and","and/or","left","and",30831,"1/19/2016","9:57","M","35","English"
"209","6",29,"hair.hands","hair","hands","or","and/or","right","or",11236,"1/19/2016","9:57","M","35","English"
"210","6",30,"hands.pants","hands","pants","or","and/noun","right","and",4140,"1/19/2016","9:57","M","35","English"
"211","6",31,"ears.lips","ears","lips","or","and/noun","right","and",2417,"1/19/2016","9:57","M","35","English"
"212","6",32,"glasses.hair","glasses","hair","or","and/noun","right","and",2231,"1/19/2016","9:57","M","35","English"
"213","6",33,"glasses.hands","glasses","hands","noun","or/noun","right","noun",1372,"1/19/2016","9:58","M","35","English"
"214","6",34,"hands.lips","hands","lips","noun","and/noun","left","noun",10444,"1/19/2016","9:58","M","35","English"
"215","6",35,"lips.pants","lips","pants","noun","or/noun","left","noun",2052,"1/19/2016","9:58","M","35","English"
"216","6",36,"ears.hands","ears","hands","noun","and/noun","left","noun",3576,"1/19/2016","9:58","M","35","English"
"217","7",1,"glasses.hands","glasses","hands","or","and/or","right","or",7724,"1/19/2016","11:24","M","35","English"
"218","7",2,"glasses.hands","glasses","hands","noun","and/or","left","and",2718,"1/19/2016","11:25","M","35","English"
"219","7",3,"lips.pants","lips","pants","noun","and/noun","left","noun",4108,"1/19/2016","11:25","M","35","English"
"220","7",4,"ears.glasses","ears","glasses","and","and/or","right","and",4429,"1/19/2016","11:25","M","35","English"
"221","7",5,"ears.lips","ears","lips","and","and/noun","left","and",2527,"1/19/2016","11:25","M","35","English"
"222","7",6,"hands.lips","hands","lips","and","and/or","left","and",2221,"1/19/2016","11:25","M","35","English"
"223","7",7,"hair.hands","hair","hands","and","or/noun","left","or",8805,"1/19/2016","11:25","M","35","English"
"224","7",8,"ears.lips","ears","lips","noun","and/noun","right","noun",4822,"1/19/2016","11:25","M","35","English"
"225","7",9,"glasses.hair","glasses","hair","noun","and/noun","left","noun",3293,"1/19/2016","11:25","M","35","English"
"226","7",10,"lips.pants","lips","pants","noun","or/noun","left","noun",3918,"1/19/2016","11:25","M","35","English"
"227","7",11,"glasses.pants","glasses","pants","or","and/noun","right","noun",15030,"1/19/2016","11:26","M","35","English"
"228","7",12,"hair.lips","hair","lips","and","and/or","right","and",4085,"1/19/2016","11:26","M","35","English"
"229","7",13,"ears.hands","ears","hands","noun","or/noun","left","noun",2199,"1/19/2016","11:26","M","35","English"
"230","7",14,"hair.lips","hair","lips","noun","and/or","left","and",2221,"1/19/2016","11:26","M","35","English"
"231","7",15,"glasses.lips","glasses","lips","and","and/or","right","and",6869,"1/19/2016","11:26","M","35","English"
"232","7",16,"glasses.lips","glasses","lips","noun","or/noun","left","noun",3430,"1/19/2016","11:26","M","35","English"
"233","7",17,"glasses.hair","glasses","hair","noun","or/noun","left","noun",2494,"1/19/2016","11:26","M","35","English"
"234","7",18,"hands.lips","hands","lips","or","and/noun","left","noun",8821,"1/19/2016","11:26","M","35","English"
"235","7",19,"hair.pants","hair","pants","or","and/noun","right","noun",6414,"1/19/2016","11:26","M","35","English"
"236","7",20,"ears.hair","ears","hair","noun","and/or","left","and",4253,"1/19/2016","11:26","M","35","English"
"237","7",21,"hair.hands","hair","hands","and","and/noun","left","and",12102,"1/19/2016","11:27","M","35","English"
"238","7",22,"hands.pants","hands","pants","noun","and/or","right","and",2997,"1/19/2016","11:27","M","35","English"
"239","7",23,"ears.lips","ears","lips","or","or/noun","right","or",6149,"1/19/2016","11:27","M","35","English"
"240","7",24,"ears.pants","ears","pants","or","and/noun","left","noun",2879,"1/19/2016","11:27","M","35","English"
"241","7",25,"hands.pants","hands","pants","or","or/noun","right","or",4901,"1/19/2016","11:27","M","35","English"
"242","7",26,"ears.glasses","ears","glasses","or","or/noun","right","or",6709,"1/19/2016","11:27","M","35","English"
"243","7",27,"ears.lips","ears","lips","or","and/or","left","or",3223,"1/19/2016","11:27","M","35","English"
"244","7",28,"glasses.pants","glasses","pants","or","and/or","left","or",3189,"1/19/2016","11:27","M","35","English"
"245","7",29,"glasses.pants","glasses","pants","noun","and/noun","left","noun",1599,"1/19/2016","11:27","M","35","English"
"246","7",30,"hair.lips","hair","lips","and","or/noun","left","or",3837,"1/19/2016","11:27","M","35","English"
"247","7",31,"ears.pants","ears","pants","and","or/noun","left","or",2543,"1/19/2016","11:27","M","35","English"
"248","7",32,"lips.pants","lips","pants","and","and/noun","left","and",2246,"1/19/2016","11:27","M","35","English"
"249","7",33,"ears.glasses","ears","glasses","or","or/noun","left","or",6165,"1/19/2016","11:28","M","35","English"
"250","7",34,"hair.hands","hair","hands","and","and/noun","left","and",1766,"1/19/2016","11:28","M","35","English"
"251","7",35,"ears.pants","ears","pants","and","or/noun","right","or",3558,"1/19/2016","11:28","M","35","English"
"252","7",36,"hands.lips","hands","lips","or","and/or","right","or",3709,"1/19/2016","11:28","M","35","English"
"253","8",1,"glasses.hair","glasses","hair","and","and/noun","left","and",12439,"1/19/2016","9:55","M","25","English"
"254","8",2,"hair.lips","hair","lips","or","and/or","left","or",4954,"1/19/2016","9:55","M","25","English"
"255","8",3,"hair.hands","hair","hands","or","and/or","right","and",5746,"1/19/2016","9:55","M","25","English"
"256","8",4,"glasses.pants","glasses","pants","noun","and/noun","right","noun",2856,"1/19/2016","9:55","M","25","English"
"257","8",5,"hair.pants","hair","pants","or","or/noun","left","or",2240,"1/19/2016","9:55","M","25","English"
"258","8",6,"glasses.hands","glasses","hands","or","and/or","left","and",1452,"1/19/2016","9:55","M","25","English"
"259","8",7,"glasses.hair","glasses","hair","noun","or/noun","right","or",1633,"1/19/2016","9:55","M","25","English"
"260","8",8,"glasses.lips","glasses","lips","or","and/noun","right","noun",1381,"1/19/2016","9:55","M","25","English"
"261","8",9,"ears.lips","ears","lips","and","or/noun","left","or",1841,"1/19/2016","9:55","M","25","English"
"262","8",10,"hands.pants","hands","pants","or","or/noun","left","or",738,"1/19/2016","9:55","M","25","English"
"263","8",11,"glasses.pants","glasses","pants","noun","and/or","right","and",2004,"1/19/2016","9:55","M","25","English"
"264","8",12,"glasses.hands","glasses","hands","and","or/noun","left","or",2266,"1/19/2016","9:56","M","25","English"
"265","8",13,"ears.hair","ears","hair","or","and/noun","left","and",1470,"1/19/2016","9:56","M","25","English"
"266","8",14,"ears.pants","ears","pants","noun","and/noun","left","noun",2277,"1/19/2016","9:56","M","25","English"
"267","8",15,"lips.pants","lips","pants","noun","and/noun","right","noun",2006,"1/19/2016","9:56","M","25","English"
"268","8",16,"ears.lips","ears","lips","and","and/noun","right","and",3295,"1/19/2016","9:56","M","25","English"
"269","8",17,"glasses.pants","glasses","pants","and","or/noun","right","or",2717,"1/19/2016","9:56","M","25","English"
"270","8",18,"hands.pants","hands","pants","and","and/or","right","or",1327,"1/19/2016","9:56","M","25","English"
"271","8",19,"hair.lips","hair","lips","or","or/noun","left","noun",1466,"1/19/2016","9:56","M","25","English"
"272","8",20,"hands.lips","hands","lips","noun","or/noun","left","or",1024,"1/19/2016","9:56","M","25","English"
"273","8",21,"ears.hands","ears","hands","noun","or/noun","right","noun",2277,"1/19/2016","9:56","M","25","English"
"274","8",22,"ears.glasses","ears","glasses","or","and/or","right","or",2912,"1/19/2016","9:56","M","25","English"
"275","8",23,"ears.pants","ears","pants","and","and/or","left","and",2275,"1/19/2016","9:56","M","25","English"
"276","8",24,"glasses.hair","glasses","hair","and","and/noun","left","noun",866,"1/19/2016","9:56","M","25","English"
"277","8",25,"ears.hands","ears","hands","or","and/noun","left","and",693,"1/19/2016","9:56","M","25","English"
"278","8",26,"ears.hands","ears","hands","and","and/noun","left","and",891,"1/19/2016","9:56","M","25","English"
"279","8",27,"ears.hands","ears","hands","or","or/noun","right","noun",1777,"1/19/2016","9:56","M","25","English"
"280","8",28,"ears.glasses","ears","glasses","and","and/or","right","and",1991,"1/19/2016","9:56","M","25","English"
"281","8",29,"ears.glasses","ears","glasses","noun","or/noun","right","or",904,"1/19/2016","9:56","M","25","English"
"282","8",30,"hair.hands","hair","hands","or","and/noun","left","noun",731,"1/19/2016","9:56","M","25","English"
"283","8",31,"lips.pants","lips","pants","and","or/noun","left","or",1779,"1/19/2016","9:56","M","25","English"
"284","8",32,"glasses.hands","glasses","hands","noun","and/or","right","and",3348,"1/19/2016","9:56","M","25","English"
"285","8",33,"hands.lips","hands","lips","noun","and/noun","right","and",1272,"1/19/2016","9:57","M","25","English"
"286","8",34,"ears.hair","ears","hair","noun","and/or","left","and",2204,"1/19/2016","9:57","M","25","English"
"287","8",35,"hair.hands","hair","hands","noun","and/or","left","or",1717,"1/19/2016","9:57","M","25","English"
"288","8",36,"lips.pants","lips","pants","and","and/or","left","or",499,"1/19/2016","9:57","M","25","English"
"289","9",1,"lips.pants","lips","pants","or","or/noun","left","or",8681,"1/19/2016","12:07","M","45","English"
"290","9",2,"hair.hands","hair","hands","or","and/noun","right","and",5130,"1/19/2016","12:07","M","45","English"
"291","9",3,"glasses.hair","glasses","hair","and","or/noun","right","or",5955,"1/19/2016","12:08","M","45","English"
"292","9",4,"hands.lips","hands","lips","and","or/noun","left","or",4696,"1/19/2016","12:08","M","45","English"
"293","9",5,"hair.lips","hair","lips","and","and/noun","right","and",2804,"1/19/2016","12:08","M","45","English"
"294","9",6,"ears.hair","ears","hair","or","and/or","left","or",7500,"1/19/2016","12:08","M","45","English"
"295","9",7,"hair.pants","hair","pants","and","and/or","right","and",11461,"1/19/2016","12:08","M","45","English"
"296","9",8,"lips.pants","lips","pants","noun","or/noun","right","noun",3636,"1/19/2016","12:08","M","45","English"
"297","9",9,"hair.pants","hair","pants","and","and/noun","right","and",2571,"1/19/2016","12:08","M","45","English"
"298","9",10,"glasses.lips","glasses","lips","or","and/noun","right","and",9067,"1/19/2016","12:08","M","45","English"
"299","9",11,"ears.lips","ears","lips","noun","and/or","left","and",3180,"1/19/2016","12:08","M","45","English"
"300","9",12,"ears.glasses","ears","glasses","noun","and/or","right","and",3768,"1/19/2016","12:09","M","45","English"
"301","9",13,"ears.hair","ears","hair","noun","and/noun","right","noun",5705,"1/19/2016","12:09","M","45","English"
"302","9",14,"hands.pants","hands","pants","and","or/noun","right","or",4370,"1/19/2016","12:09","M","45","English"
"303","9",15,"hands.lips","hands","lips","noun","and/noun","left","noun",4880,"1/19/2016","12:09","M","45","English"
"304","9",16,"glasses.hands","glasses","hands","noun","or/noun","right","noun",2860,"1/19/2016","12:09","M","45","English"
"305","9",17,"glasses.pants","glasses","pants","and","or/noun","right","or",2585,"1/19/2016","12:09","M","45","English"
"306","9",18,"glasses.hands","glasses","hands","and","and/or","right","and",5831,"1/19/2016","12:09","M","45","English"
"307","9",19,"ears.hands","ears","hands","or","or/noun","right","or",4624,"1/19/2016","12:09","M","45","English"
"308","9",20,"glasses.hands","glasses","hands","and","and/or","right","or",2910,"1/19/2016","12:09","M","45","English"
"309","9",21,"hands.pants","hands","pants","noun","and/or","right","and",7267,"1/19/2016","12:09","M","45","English"
"310","9",22,"glasses.pants","glasses","pants","noun","and/noun","right","noun",3758,"1/19/2016","12:09","M","45","English"
"311","9",23,"hands.pants","hands","pants","and","and/or","left","and",2791,"1/19/2016","12:10","M","45","English"
"312","9",24,"ears.pants","ears","pants","or","and/noun","left","and",5451,"1/19/2016","12:10","M","45","English"
"313","9",25,"glasses.hair","glasses","hair","noun","and/noun","left","noun",3102,"1/19/2016","12:10","M","45","English"
"314","9",26,"ears.lips","ears","lips","or","and/or","right","or",5366,"1/19/2016","12:10","M","45","English"
"315","9",27,"ears.hands","ears","hands","or","and/or","right","or",3882,"1/19/2016","12:10","M","45","English"
"316","9",28,"hands.pants","hands","pants","or","and/or","left","or",2396,"1/19/2016","12:10","M","45","English"
"317","9",29,"glasses.hands","glasses","hands","or","and/noun","right","and",5502,"1/19/2016","12:10","M","45","English"
"318","9",30,"ears.hands","ears","hands","noun","or/noun","right","noun",2200,"1/19/2016","12:10","M","45","English"
"319","9",31,"glasses.lips","glasses","lips","and","and/noun","left","and",2927,"1/19/2016","12:10","M","45","English"
"320","9",32,"hair.hands","hair","hands","noun","and/or","left","and",3732,"1/19/2016","12:10","M","45","English"
"321","9",33,"glasses.lips","glasses","lips","and","and/noun","right","and",3540,"1/19/2016","12:10","M","45","English"
"322","9",34,"ears.glasses","ears","glasses","or","or/noun","left","or",3067,"1/19/2016","12:10","M","45","English"
"323","9",35,"ears.hair","ears","hair","or","or/noun","right","or",4105,"1/19/2016","12:11","M","45","English"
"324","9",36,"glasses.hair","glasses","hair","noun","or/noun","left","noun",1719,"1/19/2016","12:11","M","45","English"
"325","10",1,"hair.lips","hair","lips","or","and/or","left","or",11853,"1/19/2016","12:08","M","35","English"
"326","10",2,"glasses.hair","glasses","hair","or","and/or","right","or",5730,"1/19/2016","12:08","M","35","English"
"327","10",3,"hands.lips","hands","lips","and","and/or","left","and",6534,"1/19/2016","12:08","M","35","English"
"328","10",4,"hair.hands","hair","hands","or","and/noun","left","and",16949,"1/19/2016","12:08","M","35","English"
"329","10",5,"hair.lips","hair","lips","or","and/or","right","or",5821,"1/19/2016","12:08","M","35","English"
"330","10",6,"hair.lips","hair","lips","noun","and/noun","left","noun",7781,"1/19/2016","12:09","M","35","English"
"331","10",7,"glasses.lips","glasses","lips","noun","and/or","left","and",5151,"1/19/2016","12:09","M","35","English"
"332","10",8,"glasses.pants","glasses","pants","noun","and/noun","right","noun",5837,"1/19/2016","12:09","M","35","English"
"333","10",9,"glasses.lips","glasses","lips","and","and/or","right","and",4837,"1/19/2016","12:09","M","35","English"
"334","10",10,"glasses.hair","glasses","hair","noun","or/noun","left","noun",3072,"1/19/2016","12:09","M","35","English"
"335","10",11,"hair.lips","hair","lips","or","and/noun","right","and",7469,"1/19/2016","12:09","M","35","English"
"336","10",12,"lips.pants","lips","pants","noun","or/noun","left","noun",2198,"1/19/2016","12:09","M","35","English"
"337","10",13,"ears.hair","ears","hair","and","or/noun","left","or",8576,"1/19/2016","12:09","M","35","English"
"338","10",14,"hands.pants","hands","pants","and","and/noun","right","and",4421,"1/19/2016","12:09","M","35","English"
"339","10",15,"lips.pants","lips","pants","and","or/noun","right","or",6670,"1/19/2016","12:10","M","35","English"
"340","10",16,"glasses.hands","glasses","hands","noun","or/noun","left","noun",3421,"1/19/2016","12:10","M","35","English"
"341","10",17,"hands.pants","hands","pants","and","or/noun","right","or",5014,"1/19/2016","12:10","M","35","English"
"342","10",18,"ears.glasses","ears","glasses","noun","and/or","right","and",2566,"1/19/2016","12:10","M","35","English"
"343","10",19,"ears.hair","ears","hair","noun","and/noun","right","noun",3199,"1/19/2016","12:10","M","35","English"
"344","10",20,"ears.pants","ears","pants","or","or/noun","left","or",3454,"1/19/2016","12:10","M","35","English"
"345","10",21,"glasses.hair","glasses","hair","and","and/noun","left","and",3598,"1/19/2016","12:10","M","35","English"
"346","10",22,"ears.pants","ears","pants","and","and/or","right","and",3862,"1/19/2016","12:10","M","35","English"
"347","10",23,"hair.hands","hair","hands","noun","or/noun","right","noun",1917,"1/19/2016","12:10","M","35","English"
"348","10",24,"hands.pants","hands","pants","or","or/noun","left","or",7333,"1/19/2016","12:10","M","35","English"
"349","10",25,"hands.lips","hands","lips","or","or/noun","right","or",4166,"1/19/2016","12:10","M","35","English"
"350","10",26,"ears.glasses","ears","glasses","and","and/noun","left","and",3520,"1/19/2016","12:10","M","35","English"
"351","10",27,"ears.glasses","ears","glasses","and","and/or","left","and",4071,"1/19/2016","12:11","M","35","English"
"352","10",28,"lips.pants","lips","pants","or","or/noun","right","or",3438,"1/19/2016","12:11","M","35","English"
"353","10",29,"glasses.lips","glasses","lips","or","and/noun","left","and",6302,"1/19/2016","12:11","M","35","English"
"354","10",30,"hair.pants","hair","pants","noun","and/or","left","and",2365,"1/19/2016","12:11","M","35","English"
"355","10",31,"ears.pants","ears","pants","noun","and/or","right","and",4526,"1/19/2016","12:11","M","35","English"
"356","10",32,"hair.pants","hair","pants","or","and/noun","left","and",3926,"1/19/2016","12:11","M","35","English"
"357","10",33,"hair.lips","hair","lips","and","and/noun","left","and",4399,"1/19/2016","12:11","M","35","English"
"358","10",34,"glasses.lips","glasses","lips","noun","and/noun","right","noun",3694,"1/19/2016","12:11","M","35","English"
"359","10",35,"ears.hands","ears","hands","and","or/noun","left","or",5022,"1/19/2016","12:11","M","35","English"
"360","10",36,"glasses.hands","glasses","hands","or","and/or","right","or",4206,"1/19/2016","12:11","M","35","English"
"361","11",1,"hair.pants","hair","pants","or","and/noun","left","and",6774,"1/19/2016","11:49","M","45","English"
"362","11",2,"glasses.lips","glasses","lips","or","and/or","right","and",2938,"1/19/2016","11:49","M","45","English"
"363","11",3,"ears.lips","ears","lips","or","or/noun","left","or",6966,"1/19/2016","11:50","M","45","English"
"364","11",4,"hands.pants","hands","pants","and","or/noun","right","or",6823,"1/19/2016","11:50","M","45","English"
"365","11",5,"lips.pants","lips","pants","and","and/or","right","and",4511,"1/19/2016","11:50","M","45","English"
"366","11",6,"ears.hair","ears","hair","noun","and/or","right","and",3463,"1/19/2016","11:50","M","45","English"
"367","11",7,"ears.glasses","ears","glasses","or","and/or","right","or",12159,"1/19/2016","11:50","M","45","English"
"368","11",8,"hands.pants","hands","pants","noun","and/noun","right","noun",6570,"1/19/2016","11:50","M","45","English"
"369","11",9,"ears.hands","ears","hands","noun","or/noun","right","noun",2428,"1/19/2016","11:50","M","45","English"
"370","11",10,"ears.hands","ears","hands","noun","and/or","right","and",2478,"1/19/2016","11:50","M","45","English"
"371","11",11,"ears.hands","ears","hands","and","and/or","right","and",2239,"1/19/2016","11:50","M","45","English"
"372","11",12,"glasses.hands","glasses","hands","or","or/noun","right","or",14572,"1/19/2016","11:51","M","45","English"
"373","11",13,"hair.pants","hair","pants","noun","or/noun","right","noun",3814,"1/19/2016","11:51","M","45","English"
"374","11",14,"glasses.hair","glasses","hair","or","and/or","left","or",4775,"1/19/2016","11:51","M","45","English"
"375","11",15,"hands.lips","hands","lips","noun","and/or","right","and",2278,"1/19/2016","11:51","M","45","English"
"376","11",16,"ears.hair","ears","hair","or","and/noun","right","and",5406,"1/19/2016","11:51","M","45","English"
"377","11",17,"ears.hands","ears","hands","noun","or/noun","right","noun",6917,"1/19/2016","11:51","M","45","English"
"378","11",18,"lips.pants","lips","pants","and","or/noun","left","or",4839,"1/19/2016","11:51","M","45","English"
"379","11",19,"glasses.hands","glasses","hands","noun","or/noun","left","noun",3638,"1/19/2016","11:51","M","45","English"
"380","11",20,"ears.glasses","ears","glasses","noun","and/noun","left","noun",4942,"1/19/2016","11:51","M","45","English"
"381","11",21,"ears.hair","ears","hair","or","and/noun","left","and",5350,"1/19/2016","11:51","M","45","English"
"382","11",22,"hair.hands","hair","hands","noun","and/noun","left","noun",4694,"1/19/2016","11:52","M","45","English"
"383","11",23,"hands.pants","hands","pants","and","and/noun","right","and",3449,"1/19/2016","11:52","M","45","English"
"384","11",24,"hair.pants","hair","pants","noun","and/or","left","and",2378,"1/19/2016","11:52","M","45","English"
"385","11",25,"glasses.lips","glasses","lips","or","or/noun","right","or",10069,"1/19/2016","11:52","M","45","English"
"386","11",26,"glasses.pants","glasses","pants","and","or/noun","left","or",6990,"1/19/2016","11:52","M","45","English"
"387","11",27,"ears.glasses","ears","glasses","and","and/or","left","and",8773,"1/19/2016","11:52","M","45","English"
"388","11",28,"ears.glasses","ears","glasses","or","and/or","left","or",3869,"1/19/2016","11:52","M","45","English"
"389","11",29,"glasses.hands","glasses","hands","and","or/noun","left","or",4057,"1/19/2016","11:52","M","45","English"
"390","11",30,"hair.hands","hair","hands","and","and/or","right","and",2719,"1/19/2016","11:52","M","45","English"
"391","11",31,"lips.pants","lips","pants","and","and/noun","left","and",6093,"1/19/2016","11:53","M","45","English"
"392","11",32,"hair.lips","hair","lips","or","or/noun","left","or",4383,"1/19/2016","11:53","M","45","English"
"393","11",33,"hair.lips","hair","lips","and","and/noun","left","and",2350,"1/19/2016","11:53","M","45","English"
"394","11",34,"ears.hair","ears","hair","or","and/noun","left","and",3055,"1/19/2016","11:53","M","45","English"
"395","11",35,"glasses.pants","glasses","pants","and","and/noun","right","and",3846,"1/19/2016","11:53","M","45","English"
"396","11",36,"hair.lips","hair","lips","noun","and/noun","left","noun",2742,"1/19/2016","11:53","M","45","English"
"397","12",1,"hair.hands","hair","hands","and","or/noun","right","or",4197,"1/19/2016","11:13","M","25","English"
"398","12",2,"ears.hands","ears","hands","and","and/or","left","and",3796,"1/19/2016","11:13","M","25","English"
"399","12",3,"lips.pants","lips","pants","noun","and/noun","right","and",2583,"1/19/2016","11:13","M","25","English"
"400","12",4,"glasses.hair","glasses","hair","or","and/noun","right","and",454,"1/19/2016","11:13","M","25","English"
"401","12",5,"lips.pants","lips","pants","and","and/noun","left","and",3398,"1/19/2016","11:13","M","25","English"
"402","12",6,"hair.lips","hair","lips","noun","or/noun","left","noun",1955,"1/19/2016","11:13","M","25","English"
"403","12",7,"ears.hands","ears","hands","and","and/or","right","and",2290,"1/19/2016","11:13","M","25","English"
"404","12",8,"glasses.pants","glasses","pants","noun","or/noun","left","noun",2253,"1/19/2016","11:13","M","25","English"
"405","12",9,"hair.lips","hair","lips","noun","and/or","right","and",1701,"1/19/2016","11:14","M","25","English"
"406","12",10,"hands.pants","hands","pants","noun","and/noun","right","noun",2396,"1/19/2016","11:14","M","25","English"
"407","12",11,"hair.lips","hair","lips","noun","or/noun","right","noun",1879,"1/19/2016","11:14","M","25","English"
"408","12",12,"hands.lips","hands","lips","or","and/or","left","or",5601,"1/19/2016","11:14","M","25","English"
"409","12",13,"glasses.hands","glasses","hands","noun","and/or","left","and",3947,"1/19/2016","11:14","M","25","English"
"410","12",14,"lips.pants","lips","pants","or","and/noun","left","noun",3010,"1/19/2016","11:14","M","25","English"
"411","12",15,"hands.lips","hands","lips","and","and/noun","left","and",3480,"1/19/2016","11:14","M","25","English"
"412","12",16,"ears.hands","ears","hands","or","and/noun","right","and",6591,"1/19/2016","11:14","M","25","English"
"413","12",17,"glasses.hands","glasses","hands","or","and/noun","right","and",2742,"1/19/2016","11:14","M","25","English"
"414","12",18,"ears.glasses","ears","glasses","or","and/or","right","and",2208,"1/19/2016","11:14","M","25","English"
"415","12",19,"ears.glasses","ears","glasses","or","or/noun","right","or",2673,"1/19/2016","11:14","M","25","English"
"416","12",20,"ears.pants","ears","pants","or","and/or","left","or",3602,"1/19/2016","11:14","M","25","English"
"417","12",21,"glasses.hair","glasses","hair","or","or/noun","left","or",2796,"1/19/2016","11:14","M","25","English"
"418","12",22,"glasses.hair","glasses","hair","and","and/noun","left","and",3112,"1/19/2016","11:15","M","25","English"
"419","12",23,"glasses.pants","glasses","pants","and","or/noun","left","noun",3882,"1/19/2016","11:15","M","25","English"
"420","12",24,"ears.pants","ears","pants","or","and/or","right","or",5322,"1/19/2016","11:15","M","25","English"
"421","12",25,"hair.hands","hair","hands","noun","and/or","left","and",3803,"1/19/2016","11:15","M","25","English"
"422","12",26,"glasses.lips","glasses","lips","and","and/or","left","and",2395,"1/19/2016","11:15","M","25","English"
"423","12",27,"lips.pants","lips","pants","or","or/noun","left","or",2631,"1/19/2016","11:15","M","25","English"
"424","12",28,"hair.lips","hair","lips","or","or/noun","left","or",3881,"1/19/2016","11:15","M","25","English"
"425","12",29,"ears.lips","ears","lips","and","or/noun","right","or",10826,"1/19/2016","11:15","M","25","English"
"426","12",30,"hair.pants","hair","pants","and","or/noun","left","or",8696,"1/19/2016","11:15","M","25","English"
"427","12",31,"ears.pants","ears","pants","and","and/noun","right","and",4738,"1/19/2016","11:15","M","25","English"
"428","12",32,"ears.pants","ears","pants","noun","and/or","right","and",2517,"1/19/2016","11:15","M","25","English"
"429","12",33,"hands.pants","hands","pants","noun","and/noun","left","noun",5332,"1/19/2016","11:16","M","25","English"
"430","12",34,"ears.lips","ears","lips","noun","or/noun","right","noun",11452,"1/19/2016","11:16","M","25","English"
"431","12",35,"glasses.pants","glasses","pants","noun","and/noun","right","and",2703,"1/19/2016","11:16","M","25","English"
"432","12",36,"ears.glasses","ears","glasses","and","and/or","right","and",7015,"1/19/2016","11:16","M","25","English"
"433","13",1,"hair.lips","hair","lips","and","or/noun","right","or",8969,"1/19/2016","12:51","F","45","English"
"434","13",2,"hair.pants","hair","pants","and","or/noun","left","or",3959,"1/19/2016","12:51","F","45","English"
"435","13",3,"ears.glasses","ears","glasses","and","and/noun","left","and",2596,"1/19/2016","12:51","F","45","English"
"436","13",4,"hair.pants","hair","pants","and","or/noun","right","or",4276,"1/19/2016","12:52","F","45","English"
"437","13",5,"hands.lips","hands","lips","or","and/or","right","or",16750,"1/19/2016","12:52","F","45","English"
"438","13",6,"glasses.hair","glasses","hair","noun","and/noun","left","noun",7565,"1/19/2016","12:52","F","45","English"
"439","13",7,"hands.pants","hands","pants","or","and/noun","left","and",7931,"1/19/2016","12:52","F","45","English"
"440","13",8,"hair.pants","hair","pants","and","and/or","left","and",2848,"1/19/2016","12:52","F","45","English"
"441","13",9,"glasses.hands","glasses","hands","and","and/noun","left","and",2557,"1/19/2016","12:52","F","45","English"
"442","13",10,"ears.hands","ears","hands","noun","and/noun","right","noun",3979,"1/19/2016","12:52","F","45","English"
"443","13",11,"hands.pants","hands","pants","noun","and/or","right","and",3576,"1/19/2016","12:52","F","45","English"
"444","13",12,"hair.hands","hair","hands","noun","or/noun","right","noun",2760,"1/19/2016","12:52","F","45","English"
"445","13",13,"hands.lips","hands","lips","or","or/noun","right","or",4574,"1/19/2016","12:53","F","45","English"
"446","13",14,"hands.lips","hands","lips","and","and/or","right","and",4041,"1/19/2016","12:53","F","45","English"
"447","13",15,"lips.pants","lips","pants","or","or/noun","left","or",3584,"1/19/2016","12:53","F","45","English"
"448","13",16,"glasses.hair","glasses","hair","or","and/or","left","or",3868,"1/19/2016","12:53","F","45","English"
"449","13",17,"ears.hair","ears","hair","and","and/noun","right","and",2752,"1/19/2016","12:53","F","45","English"
"450","13",18,"hands.lips","hands","lips","and","or/noun","right","or",7012,"1/19/2016","12:53","F","45","English"
"451","13",19,"ears.pants","ears","pants","noun","and/noun","left","noun",2211,"1/19/2016","12:53","F","45","English"
"452","13",20,"glasses.hands","glasses","hands","or","and/noun","right","and",3033,"1/19/2016","12:53","F","45","English"
"453","13",21,"glasses.pants","glasses","pants","noun","or/noun","left","noun",1940,"1/19/2016","12:53","F","45","English"
"454","13",22,"hair.lips","hair","lips","or","and/noun","right","and",3093,"1/19/2016","12:53","F","45","English"
"455","13",23,"hands.lips","hands","lips","or","and/or","right","or",4325,"1/19/2016","12:53","F","45","English"
"456","13",24,"hair.pants","hair","pants","and","and/or","right","and",2430,"1/19/2016","12:53","F","45","English"
"457","13",25,"ears.hands","ears","hands","and","and/or","left","and",3696,"1/19/2016","12:53","F","45","English"
"458","13",26,"hands.pants","hands","pants","noun","and/or","left","and",8260,"1/19/2016","12:54","F","45","English"
"459","13",27,"ears.hair","ears","hair","and","and/noun","right","and",2693,"1/19/2016","12:54","F","45","English"
"460","13",28,"glasses.lips","glasses","lips","noun","and/or","left","and",5863,"1/19/2016","12:54","F","45","English"
"461","13",29,"glasses.hair","glasses","hair","or","and/noun","right","and",5253,"1/19/2016","12:54","F","45","English"
"462","13",30,"glasses.hair","glasses","hair","noun","and/noun","right","noun",1819,"1/19/2016","12:54","F","45","English"
"463","13",32,"hair.pants","hair","pants","noun","or/noun","left","noun",1983,"1/19/2016","12:54","F","45","English"
"464","13",31,"ears.pants","ears","pants","or","or/noun","left","or",4295,"1/19/2016","12:54","F","45","English"
"465","13",33,"ears.hands","ears","hands","or","and/or","left","or",2241,"1/19/2016","12:54","F","45","English"
"466","13",34,"hair.lips","hair","lips","or","or/noun","left","or",3087,"1/19/2016","12:54","F","45","English"
"467","13",35,"ears.hair","ears","hair","noun","or/noun","left","noun",1651,"1/19/2016","12:54","F","45","English"
"468","13",36,"ears.glasses","ears","glasses","noun","and/or","left","and",3253,"1/19/2016","12:54","F","45","English"
"469","14",1,"hands.pants","hands","pants","and","and/or","right","and",3284,"1/19/2016","12:24","F","35","English"
"470","14",2,"hands.lips","hands","lips","and","or/noun","left","or",5020,"1/19/2016","12:24","F","35","English"
"471","14",3,"glasses.hands","glasses","hands","and","or/noun","right","or",1974,"1/19/2016","12:25","F","35","English"
"472","14",4,"hair.pants","hair","pants","and","or/noun","left","or",1492,"1/19/2016","12:25","F","35","English"
"473","14",5,"hands.lips","hands","lips","and","and/noun","left","and",1631,"1/19/2016","12:25","F","35","English"
"474","14",6,"glasses.lips","glasses","lips","noun","or/noun","right","noun",1594,"1/19/2016","12:25","F","35","English"
"475","14",7,"hands.lips","hands","lips","or","and/noun","right","and",3672,"1/19/2016","12:25","F","35","English"
"476","14",8,"ears.glasses","ears","glasses","or","and/or","right","or",4782,"1/19/2016","12:25","F","35","English"
"477","14",9,"hands.pants","hands","pants","or","and/or","left","or",1820,"1/19/2016","12:25","F","35","English"
"478","14",10,"glasses.lips","glasses","lips","noun","and/or","left","and",1764,"1/19/2016","12:25","F","35","English"
"479","14",11,"glasses.hands","glasses","hands","noun","or/noun","left","noun",1290,"1/19/2016","12:25","F","35","English"
"480","14",12,"glasses.hair","glasses","hair","or","or/noun","right","or",1183,"1/19/2016","12:25","F","35","English"
"481","14",13,"ears.glasses","ears","glasses","noun","or/noun","left","noun",1527,"1/19/2016","12:25","F","35","English"
"482","14",14,"glasses.lips","glasses","lips","or","or/noun","left","or",2880,"1/19/2016","12:25","F","35","English"
"483","14",15,"glasses.pants","glasses","pants","and","and/or","left","or",1895,"1/19/2016","12:25","F","35","English"
"484","14",16,"ears.hair","ears","hair","noun","and/or","right","and",1170,"1/19/2016","12:25","F","35","English"
"485","14",17,"ears.pants","ears","pants","or","and/noun","left","and",2122,"1/19/2016","12:25","F","35","English"
"486","14",18,"ears.hair","ears","hair","or","and/or","right","or",1652,"1/19/2016","12:25","F","35","English"
"487","14",19,"hands.pants","hands","pants","noun","and/or","right","and",3177,"1/19/2016","12:25","F","35","English"
"488","14",20,"glasses.hands","glasses","hands","noun","and/noun","left","noun",1250,"1/19/2016","12:25","F","35","English"
"489","14",21,"glasses.hair","glasses","hair","and","or/noun","right","or",1165,"1/19/2016","12:25","F","35","English"
"490","14",22,"lips.pants","lips","pants","or","or/noun","right","or",995,"1/19/2016","12:25","F","35","English"
"491","14",23,"hair.lips","hair","lips","and","and/or","right","or",1051,"1/19/2016","12:25","F","35","English"
"492","14",24,"ears.pants","ears","pants","and","and/noun","left","and",1450,"1/19/2016","12:26","F","35","English"
"493","14",25,"glasses.lips","glasses","lips","noun","and/or","right","and",1629,"1/19/2016","12:26","F","35","English"
"494","14",26,"hands.pants","hands","pants","or","or/noun","left","or",1061,"1/19/2016","12:26","F","35","English"
"495","14",27,"ears.hair","ears","hair","or","and/noun","left","and",2112,"1/19/2016","12:26","F","35","English"
"496","14",28,"ears.hair","ears","hair","noun","and/noun","right","noun",2248,"1/19/2016","12:26","F","35","English"
"497","14",29,"ears.lips","ears","lips","or","and/noun","right","and",2969,"1/19/2016","12:26","F","35","English"
"498","14",30,"glasses.lips","glasses","lips","noun","and/noun","right","noun",1539,"1/19/2016","12:26","F","35","English"
"499","14",31,"lips.pants","lips","pants","noun","and/noun","right","noun",1211,"1/19/2016","12:26","F","35","English"
"500","14",32,"ears.pants","ears","pants","and","and/noun","right","and",1378,"1/19/2016","12:26","F","35","English"
"501","14",33,"glasses.pants","glasses","pants","and","and/noun","right","and",1681,"1/19/2016","12:26","F","35","English"
"502","14",34,"hair.lips","hair","lips","noun","or/noun","right","noun",959,"1/19/2016","12:26","F","35","English"
"503","14",35,"ears.hands","ears","hands","or","and/or","left","and",1975,"1/19/2016","12:26","F","35","English"
"504","14",36,"ears.lips","ears","lips","and","and/or","left","and",1509,"1/19/2016","12:26","F","35","English"
"505","15",1,"ears.hands","ears","hands","noun","and/noun","left","and",3809,"1/19/2016","12:55","M","55","English"
"506","15",2,"hands.pants","hands","pants","and","and/noun","right","and",3596,"1/19/2016","12:55","M","55","English"
"507","15",3,"glasses.hair","glasses","hair","noun","and/or","right","and",2300,"1/19/2016","12:55","M","55","English"
"508","15",4,"ears.glasses","ears","glasses","and","and/or","left","and",2801,"1/19/2016","12:55","M","55","English"
"509","15",5,"hands.pants","hands","pants","and","or/noun","left","or",6501,"1/19/2016","12:55","M","55","English"
"510","15",6,"hair.pants","hair","pants","or","and/or","left","or",3954,"1/19/2016","12:55","M","55","English"
"511","15",7,"hair.lips","hair","lips","or","and/noun","right","and",13461,"1/19/2016","12:55","M","55","English"
"512","15",8,"glasses.pants","glasses","pants","and","and/or","right","and",3900,"1/19/2016","12:55","M","55","English"
"513","15",9,"ears.pants","ears","pants","or","or/noun","right","or",3013,"1/19/2016","12:55","M","55","English"
"514","15",10,"glasses.pants","glasses","pants","or","and/noun","right","noun",5900,"1/19/2016","12:56","M","55","English"
"515","15",11,"ears.glasses","ears","glasses","and","and/or","left","and",3277,"1/19/2016","12:56","M","55","English"
"516","15",12,"ears.hair","ears","hair","noun","and/noun","right","noun",3261,"1/19/2016","12:56","M","55","English"
"517","15",13,"ears.pants","ears","pants","and","or/noun","left","or",5116,"1/19/2016","12:56","M","55","English"
"518","15",14,"glasses.hair","glasses","hair","noun","and/noun","right","noun",4197,"1/19/2016","12:56","M","55","English"
"519","15",15,"hair.pants","hair","pants","or","or/noun","left","or",3852,"1/19/2016","12:56","M","55","English"
"520","15",16,"ears.pants","ears","pants","or","and/or","left","or",3261,"1/19/2016","12:56","M","55","English"
"521","15",17,"ears.glasses","ears","glasses","or","or/noun","left","or",2627,"1/19/2016","12:56","M","55","English"
"522","15",18,"lips.pants","lips","pants","and","and/noun","left","and",3526,"1/19/2016","12:56","M","55","English"
"523","15",19,"glasses.lips","glasses","lips","noun","or/noun","right","noun",3627,"1/19/2016","12:56","M","55","English"
"524","15",20,"ears.lips","ears","lips","noun","or/noun","left","noun",2493,"1/19/2016","12:56","M","55","English"
"525","15",21,"glasses.lips","glasses","lips","noun","and/noun","right","noun",2140,"1/19/2016","12:56","M","55","English"
"526","15",22,"glasses.hands","glasses","hands","noun","and/or","left","and",2653,"1/19/2016","12:56","M","55","English"
"527","15",23,"hair.hands","hair","hands","and","and/noun","right","and",4477,"1/19/2016","12:57","M","55","English"
"528","15",24,"ears.lips","ears","lips","and","and/or","left","and",2597,"1/19/2016","12:57","M","55","English"
"529","15",25,"hair.pants","hair","pants","noun","or/noun","right","noun",3420,"1/19/2016","12:57","M","55","English"
"530","15",26,"glasses.lips","glasses","lips","and","or/noun","left","or",3166,"1/19/2016","12:57","M","55","English"
"531","15",27,"hair.lips","hair","lips","or","and/or","right","or",3868,"1/19/2016","12:57","M","55","English"
"532","15",28,"hands.pants","hands","pants","noun","and/or","right","and",3228,"1/19/2016","12:57","M","55","English"
"533","15",29,"glasses.lips","glasses","lips","or","or/noun","right","or",286822,"1/19/2016","13:02","M","55","English"
"534","15",30,"ears.pants","ears","pants","noun","and/or","left","and",2510,"1/19/2016","13:02","M","55","English"
"535","15",31,"glasses.pants","glasses","pants","or","and/noun","right","noun",4465,"1/19/2016","13:02","M","55","English"
"536","15",32,"hair.hands","hair","hands","and","and/noun","right","and",207773,"1/19/2016","13:05","M","55","English"
"537","15",33,"ears.hair","ears","hair","noun","or/noun","left","noun",2336,"1/19/2016","13:05","M","55","English"
"538","15",34,"ears.pants","ears","pants","or","and/noun","left","noun",1955,"1/19/2016","13:05","M","55","English"
"539","15",35,"hands.lips","hands","lips","and","or/noun","left","or",3566,"1/19/2016","13:06","M","55","English"
"540","15",36,"hair.hands","hair","hands","or","and/or","right","or",3882,"1/19/2016","13:06","M","55","English"
"541","16",1,"ears.hands","ears","hands","noun","and/or","right","and",4102,"1/19/2016","11:59","F","35","English"
"542","16",2,"hands.lips","hands","lips","noun","or/noun","left","noun",2265,"1/19/2016","11:59","F","35","English"
"543","16",3,"glasses.hands","glasses","hands","or","or/noun","right","or",4462,"1/19/2016","11:59","F","35","English"
"544","16",4,"ears.hands","ears","hands","and","or/noun","left","or",7230,"1/19/2016","12:00","F","35","English"
"545","16",5,"ears.hair","ears","hair","or","and/noun","left","and",5302,"1/19/2016","12:00","F","35","English"
"546","16",6,"hands.lips","hands","lips","or","and/or","left","or",5431,"1/19/2016","12:00","F","35","English"
"547","16",7,"ears.lips","ears","lips","or","or/noun","right","or",5087,"1/19/2016","12:00","F","35","English"
"548","16",8,"hair.lips","hair","lips","noun","or/noun","left","noun",2626,"1/19/2016","12:00","F","35","English"
"549","16",9,"glasses.lips","glasses","lips","and","and/or","left","and",1854,"1/19/2016","12:00","F","35","English"
"550","16",10,"ears.glasses","ears","glasses","noun","and/or","left","and",3259,"1/19/2016","12:00","F","35","English"
"551","16",11,"glasses.lips","glasses","lips","and","and/noun","right","and",2073,"1/19/2016","12:00","F","35","English"
"552","16",12,"glasses.pants","glasses","pants","noun","and/or","right","and",2947,"1/19/2016","12:00","F","35","English"
"553","16",13,"glasses.pants","glasses","pants","noun","and/or","left","and",2872,"1/19/2016","12:00","F","35","English"
"554","16",14,"hair.hands","hair","hands","and","and/or","right","and",2162,"1/19/2016","12:00","F","35","English"
"555","16",15,"lips.pants","lips","pants","or","and/or","right","or",3092,"1/19/2016","12:00","F","35","English"
"556","16",16,"hair.lips","hair","lips","and","and/noun","left","and",1925,"1/19/2016","12:00","F","35","English"
"557","16",17,"hair.lips","hair","lips","and","or/noun","right","or",7167,"1/19/2016","12:01","F","35","English"
"558","16",18,"hair.pants","hair","pants","or","and/noun","right","and",4513,"1/19/2016","12:01","F","35","English"
"559","16",19,"lips.pants","lips","pants","noun","and/noun","right","noun",3379,"1/19/2016","12:01","F","35","English"
"560","16",20,"glasses.hair","glasses","hair","noun","and/noun","right","noun",2191,"1/19/2016","12:01","F","35","English"
"561","16",21,"ears.hair","ears","hair","and","and/or","right","and",2782,"1/19/2016","12:01","F","35","English"
"562","16",22,"ears.pants","ears","pants","and","and/or","right","and",1863,"1/19/2016","12:01","F","35","English"
"563","16",23,"glasses.lips","glasses","lips","noun","or/noun","left","noun",1691,"1/19/2016","12:01","F","35","English"
"564","16",24,"ears.hands","ears","hands","or","and/or","left","or",2881,"1/19/2016","12:01","F","35","English"
"565","16",25,"lips.pants","lips","pants","noun","and/noun","left","noun",2748,"1/19/2016","12:01","F","35","English"
"566","16",26,"ears.glasses","ears","glasses","and","or/noun","right","or",4229,"1/19/2016","12:01","F","35","English"
"567","16",27,"ears.hands","ears","hands","and","or/noun","left","or",3374,"1/19/2016","12:01","F","35","English"
"568","16",28,"ears.lips","ears","lips","noun","or/noun","left","noun",1882,"1/19/2016","12:01","F","35","English"
"569","16",29,"ears.pants","ears","pants","or","and/noun","left","and",1887,"1/19/2016","12:01","F","35","English"
"570","16",30,"hands.lips","hands","lips","or","and/noun","left","and",2645,"1/19/2016","12:01","F","35","English"
"571","16",31,"hair.pants","hair","pants","noun","and/noun","right","noun",1484,"1/19/2016","12:01","F","35","English"
"572","16",32,"ears.lips","ears","lips","or","and/or","left","or",3580,"1/19/2016","12:01","F","35","English"
"573","16",33,"hair.hands","hair","hands","and","and/noun","left","and",2595,"1/19/2016","12:02","F","35","English"
"574","16",34,"ears.glasses","ears","glasses","or","or/noun","left","or",1894,"1/19/2016","12:02","F","35","English"
"575","16",35,"glasses.hair","glasses","hair","and","and/noun","right","and",1445,"1/19/2016","12:02","F","35","English"
"576","16",36,"ears.pants","ears","pants","or","or/noun","right","or",1556,"1/19/2016","12:02","F","35","English"
"577","17",1,"glasses.hair","glasses","hair","noun","and/noun","left","noun",6277,"1/19/2016","12:50","M","35","English"
"578","17",2,"ears.glasses","ears","glasses","and","and/noun","left","and",3845,"1/19/2016","12:50","M","35","English"
"579","17",3,"hands.pants","hands","pants","and","and/or","left","and",4218,"1/19/2016","12:50","M","35","English"
"580","17",4,"lips.pants","lips","pants","or","or/noun","left","or",5666,"1/19/2016","12:50","M","35","English"
"581","17",5,"glasses.pants","glasses","pants","noun","and/or","left","and",3361,"1/19/2016","12:50","M","35","English"
"582","17",6,"hair.pants","hair","pants","noun","and/or","right","and",2408,"1/19/2016","12:50","M","35","English"
"583","17",7,"hands.lips","hands","lips","or","or/noun","right","or",5256,"1/19/2016","12:50","M","35","English"
"584","17",8,"glasses.lips","glasses","lips","and","or/noun","left","noun",8782,"1/19/2016","12:51","M","35","English"
"585","17",9,"glasses.pants","glasses","pants","noun","or/noun","right","noun",4381,"1/19/2016","12:51","M","35","English"
"586","17",10,"hands.lips","hands","lips","and","and/noun","right","and",6027,"1/19/2016","12:51","M","35","English"
"587","17",11,"ears.hands","ears","hands","noun","and/noun","right","noun",5382,"1/19/2016","12:51","M","35","English"
"588","17",12,"ears.pants","ears","pants","and","or/noun","right","or",4870,"1/19/2016","12:51","M","35","English"
"589","17",13,"lips.pants","lips","pants","and","and/noun","left","and",2932,"1/19/2016","12:51","M","35","English"
"590","17",14,"hair.lips","hair","lips","and","or/noun","left","noun",3152,"1/19/2016","12:51","M","35","English"
"591","17",15,"ears.hair","ears","hair","or","and/or","left","or",6220,"1/19/2016","12:51","M","35","English"
"592","17",16,"hair.lips","hair","lips","and","and/or","right","and",4651,"1/19/2016","12:51","M","35","English"
"593","17",17,"glasses.pants","glasses","pants","or","and/or","left","or",8522,"1/19/2016","12:51","M","35","English"
"594","17",18,"ears.lips","ears","lips","or","and/noun","left","noun",6890,"1/19/2016","12:52","M","35","English"
"595","17",19,"glasses.lips","glasses","lips","or","and/noun","right","noun",8762,"1/19/2016","12:52","M","35","English"
"596","17",20,"glasses.hands","glasses","hands","noun","or/noun","left","noun",2762,"1/19/2016","12:52","M","35","English"
"597","17",21,"hands.lips","hands","lips","and","and/or","left","and",6824,"1/19/2016","12:52","M","35","English"
"598","17",22,"hair.lips","hair","lips","or","or/noun","left","or",12712,"1/19/2016","12:52","M","35","English"
"599","17",23,"hair.lips","hair","lips","and","and/noun","left","and",11859,"1/19/2016","12:52","M","35","English"
"600","17",24,"glasses.hands","glasses","hands","noun","and/or","right","and",3283,"1/19/2016","12:53","M","35","English"
"601","17",25,"ears.glasses","ears","glasses","noun","and/noun","right","noun",3275,"1/19/2016","12:53","M","35","English"
"602","17",26,"glasses.hands","glasses","hands","or","and/noun","left","and",4984,"1/19/2016","12:53","M","35","English"
"603","17",27,"glasses.pants","glasses","pants","or","and/noun","right","and",2279,"1/19/2016","12:53","M","35","English"
"604","17",28,"ears.lips","ears","lips","or","and/or","left","or",4010,"1/19/2016","12:53","M","35","English"
"605","17",29,"hair.lips","hair","lips","or","or/noun","right","or",3008,"1/19/2016","12:53","M","35","English"
"606","17",30,"ears.pants","ears","pants","noun","or/noun","right","noun",2544,"1/19/2016","12:53","M","35","English"
"607","17",31,"glasses.lips","glasses","lips","noun","or/noun","left","noun",1779,"1/19/2016","12:53","M","35","English"
"608","17",32,"ears.hair","ears","hair","or","and/or","left","or",4096,"1/19/2016","12:53","M","35","English"
"609","17",33,"hands.pants","hands","pants","noun","and/noun","left","noun",3382,"1/19/2016","12:53","M","35","English"
"610","17",34,"hair.hands","hair","hands","and","and/or","right","and",3239,"1/19/2016","12:53","M","35","English"
"611","17",35,"hands.lips","hands","lips","noun","and/or","right","and",2848,"1/19/2016","12:53","M","35","English"
"612","17",36,"hair.hands","hair","hands","and","or/noun","right","or",3064,"1/19/2016","12:53","M","35","English"
"613","18",1,"ears.lips","ears","lips","or","and/or","left","and",5717,"1/19/2016","12:53","F","25","English"
"614","18",2,"hands.pants","hands","pants","noun","or/noun","left","noun",2356,"1/19/2016","12:53","F","25","English"
"615","18",3,"hair.lips","hair","lips","and","or/noun","right","or",3995,"1/19/2016","12:53","F","25","English"
"616","18",4,"lips.pants","lips","pants","or","and/noun","left","and",2248,"1/19/2016","12:54","F","25","English"
"617","18",5,"hair.pants","hair","pants","noun","or/noun","right","noun",2140,"1/19/2016","12:54","F","25","English"
"618","18",6,"glasses.hands","glasses","hands","or","or/noun","right","or",2163,"1/19/2016","12:54","F","25","English"
"619","18",7,"ears.lips","ears","lips","or","or/noun","left","or",2566,"1/19/2016","12:54","F","25","English"
"620","18",8,"lips.pants","lips","pants","noun","and/noun","right","noun",2547,"1/19/2016","12:54","F","25","English"
"621","18",9,"hair.hands","hair","hands","and","and/or","left","and",2561,"1/19/2016","12:54","F","25","English"
"622","18",10,"glasses.lips","glasses","lips","and","and/or","left","and",2979,"1/19/2016","12:54","F","25","English"
"623","18",11,"ears.glasses","ears","glasses","noun","and/or","left","and",4230,"1/19/2016","12:54","F","25","English"
"624","18",12,"ears.pants","ears","pants","or","and/noun","left","and",4637,"1/19/2016","12:54","F","25","English"
"625","18",13,"hands.lips","hands","lips","and","and/noun","left","and",4088,"1/19/2016","12:54","F","25","English"
"626","18",14,"hands.lips","hands","lips","and","or/noun","left","or",2891,"1/19/2016","12:54","F","25","English"
"627","18",15,"ears.pants","ears","pants","and","and/or","left","and",1538,"1/19/2016","12:54","F","25","English"
"628","18",16,"glasses.hair","glasses","hair","or","or/noun","right","or",2250,"1/19/2016","12:55","F","25","English"
"629","18",17,"hair.hands","hair","hands","or","and/noun","left","and",1582,"1/19/2016","12:55","F","25","English"
"630","18",18,"glasses.pants","glasses","pants","noun","and/or","right","and",1778,"1/19/2016","12:55","F","25","English"
"631","18",19,"hands.pants","hands","pants","and","and/noun","left","and",2131,"1/19/2016","12:55","F","25","English"
"632","18",20,"glasses.hands","glasses","hands","and","and/or","left","and",2086,"1/19/2016","12:55","F","25","English"
"633","18",21,"glasses.pants","glasses","pants","noun","and/or","right","and",3580,"1/19/2016","12:55","F","25","English"
"634","18",22,"glasses.hands","glasses","hands","or","and/or","right","and",1693,"1/19/2016","12:55","F","25","English"
"635","18",23,"hair.hands","hair","hands","or","or/noun","right","or",1847,"1/19/2016","12:55","F","25","English"
"636","18",24,"ears.glasses","ears","glasses","noun","and/noun","left","noun",3317,"1/19/2016","12:55","F","25","English"
"637","18",25,"lips.pants","lips","pants","noun","and/noun","left","noun",1557,"1/19/2016","12:55","F","25","English"
"638","18",26,"hair.lips","hair","lips","noun","or/noun","right","noun",1509,"1/19/2016","12:55","F","25","English"
"639","18",27,"ears.glasses","ears","glasses","or","and/noun","right","and",1521,"1/19/2016","12:55","F","25","English"
"640","18",28,"ears.lips","ears","lips","and","or/noun","left","or",4777,"1/19/2016","12:55","F","25","English"
"641","18",29,"ears.hands","ears","hands","and","and/noun","left","and",2185,"1/19/2016","12:55","F","25","English"
"642","18",30,"glasses.lips","glasses","lips","noun","or/noun","left","noun",13349,"1/19/2016","12:56","F","25","English"
"643","18",31,"glasses.lips","glasses","lips","and","or/noun","left","or",2219,"1/19/2016","12:56","F","25","English"
"644","18",32,"ears.hands","ears","hands","noun","and/noun","left","noun",3678,"1/19/2016","12:56","F","25","English"
"645","18",33,"ears.hands","ears","hands","or","and/or","right","and",2872,"1/19/2016","12:56","F","25","English"
"646","18",34,"ears.hair","ears","hair","and","and/noun","left","and",3432,"1/19/2016","12:56","F","25","English"
"647","18",35,"ears.hair","ears","hair","noun","and/or","left","and",11390,"1/19/2016","12:56","F","25","English"
"648","18",36,"ears.lips","ears","lips","or","and/or","left","and",2205,"1/19/2016","12:56","F","25","English"
"649","19",1,"hands.lips","hands","lips","noun","and/or","left","and",5524,"1/19/2016","9:12","M","25","English"
"650","19",2,"hair.pants","hair","pants","noun","and/noun","left","noun",3013,"1/19/2016","9:12","M","25","English"
"651","19",3,"ears.glasses","ears","glasses","noun","or/noun","left","noun",1457,"1/19/2016","9:12","M","25","English"
"652","19",4,"lips.pants","lips","pants","and","and/noun","left","and",2598,"1/19/2016","9:12","M","25","English"
"653","19",5,"glasses.pants","glasses","pants","or","and/or","left","or",1755,"1/19/2016","9:12","M","25","English"
"654","19",6,"hair.hands","hair","hands","and","and/or","left","and",3238,"1/19/2016","9:12","M","25","English"
"655","19",7,"ears.lips","ears","lips","and","and/or","left","and",4281,"1/19/2016","9:12","M","25","English"
"656","19",8,"glasses.hair","glasses","hair","and","and/or","left","and",2911,"1/19/2016","9:13","M","25","English"
"657","19",9,"ears.pants","ears","pants","or","or/noun","right","or",2044,"1/19/2016","9:13","M","25","English"
"658","19",10,"glasses.hair","glasses","hair","noun","and/noun","right","and",2801,"1/19/2016","9:13","M","25","English"
"659","19",11,"lips.pants","lips","pants","and","or/noun","right","or",3455,"1/19/2016","9:13","M","25","English"
"660","19",12,"lips.pants","lips","pants","noun","or/noun","right","noun",2599,"1/19/2016","9:13","M","25","English"
"661","19",13,"hands.pants","hands","pants","or","or/noun","left","or",2107,"1/19/2016","9:13","M","25","English"
"662","19",14,"hands.lips","hands","lips","or","and/noun","left","and",2299,"1/19/2016","9:13","M","25","English"
"663","19",15,"hair.pants","hair","pants","or","and/or","left","or",2552,"1/19/2016","9:13","M","25","English"
"664","19",16,"hair.pants","hair","pants","noun","and/noun","left","and",2836,"1/19/2016","9:13","M","25","English"
"665","19",17,"glasses.lips","glasses","lips","and","or/noun","right","or",2055,"1/19/2016","9:13","M","25","English"
"666","19",18,"ears.hands","ears","hands","and","or/noun","left","or",2547,"1/19/2016","9:13","M","25","English"
"667","19",19,"ears.hands","ears","hands","and","and/noun","right","and",2432,"1/19/2016","9:13","M","25","English"
"668","19",20,"glasses.lips","glasses","lips","or","and/or","right","and",2566,"1/19/2016","9:13","M","25","English"
"669","19",21,"hair.lips","hair","lips","noun","and/or","left","or",3669,"1/19/2016","9:13","M","25","English"
"670","19",22,"ears.hands","ears","hands","noun","or/noun","left","noun",1848,"1/19/2016","9:13","M","25","English"
"671","19",23,"glasses.hands","glasses","hands","noun","and/or","left","and",2801,"1/19/2016","9:13","M","25","English"
"672","19",24,"hands.pants","hands","pants","or","and/noun","left","and",2326,"1/19/2016","9:13","M","25","English"
"673","19",25,"hands.pants","hands","pants","or","or/noun","right","or",2153,"1/19/2016","9:14","M","25","English"
"674","19",26,"glasses.lips","glasses","lips","and","or/noun","right","or",1581,"1/19/2016","9:14","M","25","English"
"675","19",27,"lips.pants","lips","pants","or","and/noun","right","and",5304,"1/19/2016","9:14","M","25","English"
"676","19",28,"glasses.hands","glasses","hands","and","and/or","left","or",2426,"1/19/2016","9:14","M","25","English"
"677","19",29,"ears.glasses","ears","glasses","noun","and/noun","left","and",2994,"1/19/2016","9:14","M","25","English"
"678","19",30,"ears.pants","ears","pants","and","and/noun","left","and",1735,"1/19/2016","9:14","M","25","English"
"679","19",31,"hair.hands","hair","hands","noun","or/noun","right","noun",2210,"1/19/2016","9:14","M","25","English"
"680","19",32,"ears.hair","ears","hair","or","and/or","right","or",3485,"1/19/2016","9:14","M","25","English"
"681","19",33,"ears.pants","ears","pants","or","or/noun","right","or",2190,"1/19/2016","9:14","M","25","English"
"682","19",34,"glasses.pants","glasses","pants","noun","and/or","right","and",3725,"1/19/2016","9:14","M","25","English"
"683","19",35,"ears.hands","ears","hands","and","and/noun","right","and",5926,"1/19/2016","9:14","M","25","English"
"684","19",36,"hair.hands","hair","hands","or","and/noun","left","and",4378,"1/19/2016","9:14","M","25","English"
"685","20",1,"hands.pants","hands","pants","and","or/noun","right","or",3603,"1/19/2016","12:53","M","45","English"
"686","20",2,"glasses.hair","glasses","hair","noun","and/noun","right","noun",3437,"1/19/2016","12:53","M","45","English"
"687","20",3,"hair.lips","hair","lips","noun","or/noun","left","noun",1511,"1/19/2016","12:53","M","45","English"
"688","20",4,"glasses.hair","glasses","hair","noun","and/noun","right","noun",2549,"1/19/2016","12:53","M","45","English"
"689","20",5,"ears.lips","ears","lips","or","or/noun","left","or",3834,"1/19/2016","12:53","M","45","English"
"690","20",6,"glasses.hands","glasses","hands","or","or/noun","left","or",4703,"1/19/2016","12:53","M","45","English"
"691","20",7,"ears.lips","ears","lips","noun","and/or","left","and",1893,"1/19/2016","12:53","M","45","English"
"692","20",8,"ears.hands","ears","hands","and","and/or","left","and",11021,"1/19/2016","12:53","M","45","English"
"693","20",9,"ears.hair","ears","hair","and","or/noun","left","or",6946,"1/19/2016","12:53","M","45","English"
"694","20",10,"glasses.lips","glasses","lips","and","and/noun","left","and",3900,"1/19/2016","12:53","M","45","English"
"695","20",11,"glasses.hair","glasses","hair","and","or/noun","right","or",5207,"1/19/2016","12:53","M","45","English"
"696","20",12,"hair.pants","hair","pants","noun","or/noun","left","noun",2867,"1/19/2016","12:54","M","45","English"
"697","20",13,"glasses.lips","glasses","lips","noun","and/or","right","and",4560,"1/19/2016","12:54","M","45","English"
"698","20",14,"lips.pants","lips","pants","and","or/noun","left","or",2620,"1/19/2016","12:54","M","45","English"
"699","20",15,"hands.pants","hands","pants","or","and/noun","left","and",26852,"1/19/2016","12:54","M","45","English"
"700","20",16,"hands.pants","hands","pants","or","and/or","right","or",89250,"1/19/2016","12:56","M","45","English"
"701","20",17,"glasses.lips","glasses","lips","or","or/noun","left","or",8675,"1/19/2016","12:56","M","45","English"
"702","20",18,"glasses.lips","glasses","lips","noun","and/or","left","and",13209,"1/19/2016","12:56","M","45","English"
"703","20",19,"glasses.hands","glasses","hands","noun","and/or","left","and",5542,"1/19/2016","12:56","M","45","English"
"704","20",20,"ears.hair","ears","hair","or","and/noun","right","and",309911,"1/19/2016","13:01","M","45","English"
"705","20",21,"ears.pants","ears","pants","and","and/or","right","and",1787,"1/19/2016","13:01","M","45","English"
"706","20",22,"ears.hands","ears","hands","or","or/noun","left","or",2923,"1/19/2016","13:01","M","45","English"
"707","20",23,"ears.hands","ears","hands","or","and/noun","right","and",6491,"1/19/2016","13:02","M","45","English"
"708","20",24,"ears.hands","ears","hands","or","and/or","left","or",2810,"1/19/2016","13:02","M","45","English"
"709","20",25,"ears.pants","ears","pants","noun","and/noun","right","noun",59798,"1/19/2016","13:03","M","45","English"
"710","20",26,"glasses.pants","glasses","pants","or","and/or","left","or",4733,"1/19/2016","13:03","M","45","English"
"711","20",27,"hair.lips","hair","lips","noun","and/noun","right","noun",5751,"1/19/2016","13:03","M","45","English"
"712","20",28,"lips.pants","lips","pants","or","and/or","left","or",13815,"1/19/2016","13:03","M","45","English"
"713","20",29,"hair.hands","hair","hands","and","and/or","left","and",11282,"1/19/2016","13:03","M","45","English"
"714","20",30,"hair.pants","hair","pants","and","and/noun","left","and",20074,"1/19/2016","13:04","M","45","English"
"715","20",31,"hair.hands","hair","hands","and","and/noun","right","and",8421,"1/19/2016","13:04","M","45","English"
"716","20",32,"hair.pants","hair","pants","noun","or/noun","left","noun",2192,"1/19/2016","13:04","M","45","English"
"717","20",33,"glasses.pants","glasses","pants","or","and/noun","left","and",8821,"1/19/2016","13:04","M","45","English"
"718","20",34,"hands.pants","hands","pants","and","and/or","right","and",2066,"1/19/2016","13:04","M","45","English"
"719","20",35,"ears.glasses","ears","glasses","and","and/noun","left","and",3422,"1/19/2016","13:04","M","45","English"
"720","20",36,"ears.hair","ears","hair","noun","or/noun","left","noun",2395,"1/19/2016","13:04","M","45","English"
"721","21",1,"hands.pants","hands","pants","and","and/or","right","and",10211,"1/19/2016","9:52","M","45","English"
"722","21",2,"glasses.lips","glasses","lips","or","and/noun","right","and",4298,"1/19/2016","9:52","M","45","English"
"723","21",3,"hair.pants","hair","pants","noun","and/or","right","and",3334,"1/19/2016","9:52","M","45","English"
"724","21",4,"hair.hands","hair","hands","and","or/noun","right","or",6475,"1/19/2016","9:52","M","45","English"
"725","21",5,"hair.pants","hair","pants","or","and/or","left","or",9897,"1/19/2016","9:52","M","45","English"
"726","21",6,"glasses.hair","glasses","hair","noun","or/noun","right","noun",3877,"1/19/2016","9:53","M","45","English"
"727","21",7,"ears.glasses","ears","glasses","noun","or/noun","left","noun",2555,"1/19/2016","9:53","M","45","English"
"728","21",8,"ears.lips","ears","lips","noun","and/noun","left","noun",3724,"1/19/2016","9:53","M","45","English"
"729","21",9,"hands.pants","hands","pants","and","and/or","left","and",5090,"1/19/2016","9:53","M","45","English"
"730","21",10,"ears.pants","ears","pants","and","or/noun","right","or",3397,"1/19/2016","9:53","M","45","English"
"731","21",11,"lips.pants","lips","pants","or","or/noun","left","or",2948,"1/19/2016","9:53","M","45","English"
"732","21",12,"ears.glasses","ears","glasses","or","or/noun","right","or",2556,"1/19/2016","9:53","M","45","English"
"733","21",13,"ears.lips","ears","lips","and","or/noun","right","or",10101,"1/19/2016","9:53","M","45","English"
"734","21",14,"glasses.pants","glasses","pants","and","and/or","left","and",5118,"1/19/2016","9:53","M","45","English"
"735","21",15,"glasses.pants","glasses","pants","and","and/noun","left","and",2813,"1/19/2016","9:53","M","45","English"
"736","21",16,"ears.pants","ears","pants","or","or/noun","right","or",1972,"1/19/2016","9:53","M","45","English"
"737","21",17,"ears.hands","ears","hands","or","and/noun","left","and",5988,"1/19/2016","9:53","M","45","English"
"738","21",18,"ears.hands","ears","hands","noun","and/or","right","and",4578,"1/19/2016","9:54","M","45","English"
"739","21",19,"ears.hair","ears","hair","and","or/noun","left","or",3113,"1/19/2016","9:54","M","45","English"
"740","21",20,"ears.hair","ears","hair","noun","and/noun","right","noun",3783,"1/19/2016","9:54","M","45","English"
"741","21",21,"glasses.lips","glasses","lips","or","and/or","right","or",4324,"1/19/2016","9:54","M","45","English"
"742","21",22,"ears.hair","ears","hair","noun","and/or","right","and",3604,"1/19/2016","9:54","M","45","English"
"743","21",23,"lips.pants","lips","pants","or","and/or","right","or",2827,"1/19/2016","9:54","M","45","English"
"744","21",24,"glasses.pants","glasses","pants","or","or/noun","left","or",3125,"1/19/2016","9:54","M","45","English"
"745","21",25,"ears.glasses","ears","glasses","noun","and/noun","left","noun",3348,"1/19/2016","9:54","M","45","English"
"746","21",26,"hair.hands","hair","hands","and","and/noun","right","and",3284,"1/19/2016","9:54","M","45","English"
"747","21",27,"ears.pants","ears","pants","or","and/or","right","or",2444,"1/19/2016","9:54","M","45","English"
"748","21",28,"glasses.hair","glasses","hair","or","and/noun","right","and",3372,"1/19/2016","9:54","M","45","English"
"749","21",29,"hair.pants","hair","pants","noun","or/noun","right","noun",3838,"1/19/2016","9:54","M","45","English"
"750","21",30,"glasses.lips","glasses","lips","noun","and/noun","right","noun",1843,"1/19/2016","9:54","M","45","English"
"751","21",31,"ears.pants","ears","pants","or","and/noun","left","and",3411,"1/19/2016","9:54","M","45","English"
"752","21",32,"glasses.hair","glasses","hair","and","and/noun","right","and",2700,"1/19/2016","9:55","M","45","English"
"753","21",33,"hands.pants","hands","pants","and","and/noun","right","and",2036,"1/19/2016","9:55","M","45","English"
"754","21",34,"glasses.hands","glasses","hands","and","and/or","right","and",2341,"1/19/2016","9:55","M","45","English"
"755","21",35,"ears.pants","ears","pants","noun","or/noun","right","noun",2404,"1/19/2016","9:55","M","45","English"
"756","21",36,"ears.glasses","ears","glasses","noun","and/or","right","and",2508,"1/19/2016","9:55","M","45","English"
"757","22",1,"hands.lips","hands","lips","or","and/noun","left","and",11384,"1/19/2016","11:49","F","25","English"
"758","22",2,"hands.lips","hands","lips","or","and/noun","right","and",3251,"1/19/2016","11:49","F","25","English"
"759","22",3,"glasses.hands","glasses","hands","or","or/noun","left","or",5584,"1/19/2016","11:49","F","25","English"
"760","22",4,"hair.pants","hair","pants","noun","and/or","right","and",3278,"1/19/2016","11:49","F","25","English"
"761","22",5,"ears.hands","ears","hands","noun","or/noun","left","noun",2346,"1/19/2016","11:49","F","25","English"
"762","22",6,"glasses.pants","glasses","pants","and","or/noun","left","or",2780,"1/19/2016","11:49","F","25","English"
"763","22",7,"lips.pants","lips","pants","or","and/noun","right","and",3504,"1/19/2016","11:49","F","25","English"
"764","22",8,"hair.hands","hair","hands","and","and/noun","right","and",2761,"1/19/2016","11:49","F","25","English"
"765","22",9,"glasses.hair","glasses","hair","noun","and/noun","right","noun",4935,"1/19/2016","11:49","F","25","English"
"766","22",10,"ears.pants","ears","pants","or","or/noun","left","or",2544,"1/19/2016","11:49","F","25","English"
"767","22",11,"ears.lips","ears","lips","and","and/noun","left","and",3501,"1/19/2016","11:49","F","25","English"
"768","22",12,"glasses.hands","glasses","hands","and","and/or","right","and",7778,"1/19/2016","11:50","F","25","English"
"769","22",13,"ears.lips","ears","lips","noun","or/noun","left","noun",8378,"1/19/2016","11:50","F","25","English"
"770","22",14,"ears.hair","ears","hair","or","and/or","left","or",2934,"1/19/2016","11:50","F","25","English"
"771","22",15,"ears.hands","ears","hands","or","and/noun","right","and",4935,"1/19/2016","11:50","F","25","English"
"772","22",16,"glasses.hands","glasses","hands","and","or/noun","left","or",3089,"1/19/2016","11:50","F","25","English"
"773","22",17,"hair.hands","hair","hands","and","and/or","right","and",3292,"1/19/2016","11:50","F","25","English"
"774","22",18,"glasses.hair","glasses","hair","noun","and/or","left","and",20847,"1/19/2016","11:50","F","25","English"
"775","22",19,"hands.pants","hands","pants","noun","and/noun","right","noun",4203,"1/19/2016","11:51","F","25","English"
"776","22",20,"ears.pants","ears","pants","noun","and/or","right","and",3344,"1/19/2016","11:51","F","25","English"
"777","22",21,"glasses.hands","glasses","hands","and","and/or","right","and",4962,"1/19/2016","11:51","F","25","English"
"778","22",22,"ears.lips","ears","lips","or","and/or","right","or",2720,"1/19/2016","11:51","F","25","English"
"779","22",23,"ears.pants","ears","pants","or","or/noun","right","or",2493,"1/19/2016","11:51","F","25","English"
"780","22",24,"glasses.pants","glasses","pants","noun","or/noun","right","noun",12047,"1/19/2016","11:51","F","25","English"
"781","22",25,"lips.pants","lips","pants","or","and/or","left","or",10980,"1/19/2016","11:51","F","25","English"
"782","22",26,"glasses.lips","glasses","lips","and","or/noun","right","or",5284,"1/19/2016","11:51","F","25","English"
"783","22",27,"glasses.pants","glasses","pants","or","and/or","left","or",6031,"1/19/2016","11:51","F","25","English"
"784","22",28,"hands.pants","hands","pants","and","and/noun","right","and",9704,"1/19/2016","11:52","F","25","English"
"785","22",29,"hair.pants","hair","pants","and","and/noun","left","and",1772,"1/19/2016","11:52","F","25","English"
"786","22",30,"glasses.pants","glasses","pants","and","or/noun","right","or",2821,"1/19/2016","11:52","F","25","English"
"787","22",31,"hands.pants","hands","pants","noun","or/noun","left","noun",1785,"1/19/2016","11:52","F","25","English"
"788","22",32,"hair.lips","hair","lips","and","and/or","left","and",2985,"1/19/2016","11:52","F","25","English"
"789","22",33,"hair.hands","hair","hands","noun","and/noun","right","noun",3864,"1/19/2016","11:52","F","25","English"
"790","22",34,"glasses.lips","glasses","lips","noun","and/noun","left","noun",2394,"1/19/2016","11:52","F","25","English"
"791","22",35,"lips.pants","lips","pants","noun","and/or","right","and",2413,"1/19/2016","11:52","F","25","English"
"792","22",36,"hair.hands","hair","hands","or","or/noun","left","or",2632,"1/19/2016","11:52","F","25","English"
"793","23",1,"hair.pants","hair","pants","and","and/noun","right","and",3447,"1/19/2016","12:53","F","25","English"
"794","23",2,"hands.lips","hands","lips","and","or/noun","right","or",2884,"1/19/2016","12:53","F","25","English"
"795","23",3,"hair.pants","hair","pants","and","and/or","left","and",2861,"1/19/2016","12:53","F","25","English"
"796","23",4,"lips.pants","lips","pants","and","and/noun","right","and",3516,"1/19/2016","12:54","F","25","English"
"797","23",5,"glasses.hands","glasses","hands","or","or/noun","left","or",3301,"1/19/2016","12:54","F","25","English"
"798","23",6,"ears.hands","ears","hands","noun","or/noun","left","noun",3124,"1/19/2016","12:54","F","25","English"
"799","23",7,"glasses.lips","glasses","lips","noun","and/or","right","and",1920,"1/19/2016","12:54","F","25","English"
"800","23",8,"glasses.hair","glasses","hair","or","or/noun","right","or",3309,"1/19/2016","12:54","F","25","English"
"801","23",9,"hands.pants","hands","pants","noun","and/or","right","and",2445,"1/19/2016","12:54","F","25","English"
"802","23",10,"hands.lips","hands","lips","and","and/or","left","or",2611,"1/19/2016","12:54","F","25","English"
"803","23",11,"ears.glasses","ears","glasses","or","and/noun","left","and",9369,"1/19/2016","12:54","F","25","English"
"804","23",12,"ears.hands","ears","hands","or","and/or","right","or",3983,"1/19/2016","12:54","F","25","English"
"805","23",13,"ears.hands","ears","hands","and","and/or","left","and",5642,"1/19/2016","12:54","F","25","English"
"806","23",14,"ears.hair","ears","hair","noun","and/noun","left","noun",3595,"1/19/2016","12:54","F","25","English"
"807","23",15,"hands.lips","hands","lips","noun","or/noun","right","noun",1889,"1/19/2016","12:54","F","25","English"
"808","23",16,"ears.lips","ears","lips","noun","and/or","right","and",2751,"1/19/2016","12:54","F","25","English"
"809","23",17,"hair.lips","hair","lips","or","and/or","left","or",2715,"1/19/2016","12:55","F","25","English"
"810","23",18,"hands.lips","hands","lips","or","and/or","right","or",4051,"1/19/2016","12:55","F","25","English"
"811","23",19,"glasses.hair","glasses","hair","or","and/noun","right","and",4414,"1/19/2016","12:55","F","25","English"
"812","23",20,"hair.pants","hair","pants","noun","or/noun","right","noun",3551,"1/19/2016","12:55","F","25","English"
"813","23",21,"glasses.pants","glasses","pants","or","or/noun","right","or",3633,"1/19/2016","12:55","F","25","English"
"814","23",22,"ears.glasses","ears","glasses","noun","and/noun","right","noun",2121,"1/19/2016","12:55","F","25","English"
"815","23",23,"ears.lips","ears","lips","noun","and/noun","right","noun",8764,"1/19/2016","12:55","F","25","English"
"816","23",24,"ears.pants","ears","pants","and","and/or","right","or",5349,"1/19/2016","12:55","F","25","English"
"817","23",25,"glasses.pants","glasses","pants","or","and/or","right","or",2547,"1/19/2016","12:55","F","25","English"
"818","23",26,"hands.pants","hands","pants","noun","and/or","right","or",5316,"1/19/2016","12:55","F","25","English"
"819","23",27,"glasses.pants","glasses","pants","and","or/noun","left","or",41000,"1/19/2016","12:56","F","25","English"
"820","23",28,"hair.lips","hair","lips","or","or/noun","right","or",2978,"1/19/2016","12:56","F","25","English"
"821","23",29,"glasses.hands","glasses","hands","or","and/noun","right","and",3244,"1/19/2016","12:56","F","25","English"
"822","23",30,"glasses.hair","glasses","hair","and","and/noun","right","and",54696,"1/19/2016","12:57","F","25","English"
"823","23",31,"ears.pants","ears","pants","and","and/noun","right","and",2490,"1/19/2016","12:57","F","25","English"
"824","23",32,"hands.lips","hands","lips","noun","or/noun","right","noun",3327,"1/19/2016","12:57","F","25","English"
"825","23",33,"hair.lips","hair","lips","and","or/noun","right","or",2422,"1/19/2016","12:57","F","25","English"
"826","23",34,"lips.pants","lips","pants","or","and/noun","right","and",2616,"1/19/2016","12:57","F","25","English"
"827","23",35,"ears.hair","ears","hair","and","or/noun","left","or",3493,"1/19/2016","12:57","F","25","English"
"828","23",36,"glasses.hands","glasses","hands","noun","and/noun","left","noun",2160,"1/19/2016","12:58","F","25","English"
"829","24",1,"glasses.pants","glasses","pants","or","or/noun","right","or",4653,"1/19/2016","13:08","M","25","English"
"830","24",2,"hands.lips","hands","lips","or","and/or","right","and",4354,"1/19/2016","13:08","M","25","English"
"831","24",3,"lips.pants","lips","pants","noun","and/or","right","and",3389,"1/19/2016","13:08","M","25","English"
"832","24",4,"hands.lips","hands","lips","or","and/noun","right","and",4597,"1/19/2016","13:08","M","25","English"
"833","24",5,"hair.pants","hair","pants","or","or/noun","right","or",3086,"1/19/2016","13:08","M","25","English"
"834","24",6,"glasses.pants","glasses","pants","noun","and/or","right","and",2629,"1/19/2016","13:08","M","25","English"
"835","24",7,"hands.pants","hands","pants","noun","and/or","right","and",1663,"1/19/2016","13:08","M","25","English"
"836","24",8,"glasses.lips","glasses","lips","and","or/noun","right","or",5896,"1/19/2016","13:08","M","25","English"
"837","24",9,"glasses.hands","glasses","hands","noun","and/or","right","and",3080,"1/19/2016","13:08","M","25","English"
"838","24",10,"ears.lips","ears","lips","noun","and/noun","right","and",13493,"1/19/2016","13:09","M","25","English"
"839","24",11,"ears.glasses","ears","glasses","noun","or/noun","right","noun",1728,"1/19/2016","13:09","M","25","English"
"840","24",12,"ears.glasses","ears","glasses","and","or/noun","right","noun",1908,"1/19/2016","13:09","M","25","English"
"841","24",13,"hair.hands","hair","hands","and","and/noun","right","and",1890,"1/19/2016","13:09","M","25","English"
"842","24",14,"ears.pants","ears","pants","noun","or/noun","left","noun",18308,"1/19/2016","13:09","M","25","English"
"843","24",15,"hands.pants","hands","pants","and","and/noun","right","and",16005,"1/19/2016","13:09","M","25","English"
"844","24",16,"glasses.pants","glasses","pants","noun","and/noun","right","noun",5579,"1/19/2016","13:09","M","25","English"
"845","24",17,"hands.lips","hands","lips","noun","and/noun","left","noun",1902,"1/19/2016","13:09","M","25","English"
"846","24",18,"glasses.pants","glasses","pants","or","and/noun","left","and",4692,"1/19/2016","13:10","M","25","English"
"847","24",19,"ears.lips","ears","lips","and","and/or","right","and",1954,"1/19/2016","13:10","M","25","English"
"848","24",20,"glasses.lips","glasses","lips","or","and/or","right","or",2087,"1/19/2016","13:10","M","25","English"
"849","24",21,"ears.hands","ears","hands","and","or/noun","left","or",3749,"1/19/2016","13:10","M","25","English"
"850","24",22,"lips.pants","lips","pants","or","or/noun","right","or",2598,"1/19/2016","13:10","M","25","English"
"851","24",23,"ears.pants","ears","pants","and","and/noun","right","and",95828,"1/19/2016","13:11","M","25","English"
"852","24",24,"hair.lips","hair","lips","and","and/noun","right","and",4405,"1/19/2016","13:12","M","25","English"
"853","24",25,"glasses.lips","glasses","lips","and","and/or","left","and",5541,"1/19/2016","13:12","M","25","English"
"854","24",26,"hands.lips","hands","lips","or","and/noun","left","and",25920,"1/19/2016","13:12","M","25","English"
"855","24",27,"hair.pants","hair","pants","or","and/or","left","or",2371,"1/19/2016","13:12","M","25","English"
"856","24",28,"hair.lips","hair","lips","noun","and/noun","right","and",2780,"1/19/2016","13:12","M","25","English"
"857","24",29,"ears.hair","ears","hair","and","and/or","right","or",6374,"1/19/2016","13:12","M","25","English"
"858","24",30,"hands.pants","hands","pants","and","or/noun","left","or",15195,"1/19/2016","13:13","M","25","English"
"859","24",31,"ears.lips","ears","lips","and","and/or","right","and",1667,"1/19/2016","13:13","M","25","English"
"860","24",32,"hair.lips","hair","lips","noun","or/noun","left","noun",1734,"1/19/2016","13:13","M","25","English"
